Time,header.seq,header.stamp.secs,header.stamp.nsecs,header.frame_id,orientation.x,orientation.y,orientation.z,orientation.w,orientation_covariance_0,orientation_covariance_1,orientation_covariance_2,orientation_covariance_3,orientation_covariance_4,orientation_covariance_5,orientation_covariance_6,orientation_covariance_7,orientation_covariance_8,angular_velocity.x,angular_velocity.y,angular_velocity.z,angular_velocity_covariance_0,angular_velocity_covariance_1,angular_velocity_covariance_2,angular_velocity_covariance_3,angular_velocity_covariance_4,angular_velocity_covariance_5,angular_velocity_covariance_6,angular_velocity_covariance_7,angular_velocity_covariance_8,linear_acceleration.x,linear_acceleration.y,linear_acceleration.z,linear_acceleration_covariance_0,linear_acceleration_covariance_1,linear_acceleration_covariance_2,linear_acceleration_covariance_3,linear_acceleration_covariance_4,linear_acceleration_covariance_5,linear_acceleration_covariance_6,linear_acceleration_covariance_7,linear_acceleration_covariance_8
1614455811.638758,1,1614455811,614398956,base_imu_link,0.1118644400478316,0.02380043097548641,-0.9610556589547634,0.2515788284597727,0.0025,0.0,0.0,0.0,0.0025,0.0,0.0,0.0,0.0025,0.01,-0.05,-0.01,0.02,0.0,0.0,0.0,0.02,0.0,0.0,0.0,0.02,-2.226651484375,0.10533789062499999,9.571575312499998,0.04,0.0,0.0,0.0,0.04,0.0,0.0,0.0,0.04
1614455811.6583648,2,1614455811,634434938,base_imu_link,0.11177021316660862,0.02382714336499436,-0.9609553144159622,0.25200113171070204,0.0025,0.0,0.0,0.0,0.0025,0.0,0.0,0.0,0.0025,0.01,-0.05,-0.01,0.02,0.0,0.0,0.0,0.02,0.0,0.0,0.0,0.02,-2.226651484375,0.10533789062499999,9.576171875,0.04,0.0,0.0,0.0,0.04,0.0,0.0,0.0,0.04
1614455811.6782575,3,1614455811,654422998,base_imu_link,0.11179220398832679,0.023743284103368286,-0.9609573900674281,0.25199137696003815,0.0025,0.0,0.0,0.0,0.0025,0.0,0.0,0.0,0.0025,0.01,-0.05,-0.01,0.02,0.0,0.0,0.0,0.02,0.0,0.0,0.0,0.02,-2.24082421875,0.10533789062499999,9.576171875,0.04,0.0,0.0,0.0,0.04,0.0,0.0,0.0,0.04
1614455811.6982048,4,1614455811,674424886,base_imu_link,0.11179220398832679,0.023743284103368286,-0.9609573900674281,0.25199137696003815,0.0025,0.0,0.0,0.0,0.0025,0.0,0.0,0.0,0.0025,0.01,-0.05,-0.01,0.02,0.0,0.0,0.0,0.02,0.0,0.0,0.0,0.02,-2.24082421875,0.10074132812499999,9.566595703125,0.04,0.0,0.0,0.0,0.04,0.0,0.0,0.0,0.04
1614455811.7184865,5,1614455811,694588899,base_imu_link,0.11177021316660862,0.02382714336499436,-0.9609553144159622,0.25200113171070204,0.0025,0.0,0.0,0.0,0.0025,0.0,0.0,0.0,0.0025,0.01,-0.05,-0.01,0.02,0.0,0.0,0.0,0.02,0.0,0.0,0.0,0.02,-2.24082421875,0.10533789062499999,9.571575312499998,0.04,0.0,0.0,0.0,0.04,0.0,0.0,0.0,0.04
1614455811.7397585,6,1614455811,714780092,base_imu_link,0.11177644726777851,0.0237978811754041,-0.9610212552257956,0.2517495455646169,0.0025,0.0,0.0,0.0,0.0025,0.0,0.0,0.0,0.0025,0.01,-0.05,-0.01,0.02,0.0,0.0,0.0,0.02,0.0,0.0,0.0,0.02,-2.24082421875,0.10533789062499999,9.571575312499998,0.04,0.0,0.0,0.0,0.04,0.0,0.0,0.0,0.04
1614455811.7585025,7,1614455811,734622001,base_imu_link,0.11186651660130031,0.023790668870899815,-0.9610776096897314,0.25149495957421963,0.0025,0.0,0.0,0.0,0.0025,0.0,0.0,0.0,0.0025,0.01,-0.05,-0.01,0.02,0.0,0.0,0.0,0.02,0.0,0.0,0.0,0.02,-2.24082421875,0.10533789062499999,9.571575312499998,0.04,0.0,0.0,0.0,0.04,0.0,0.0,0.0,0.04
1614455811.7783253,8,1614455811,754595994,base_imu_link,0.11189466584182041,0.023677505793871272,-0.9611454878917621,0.2512335777336203,0.0025,0.0,0.0,0.0,0.0025,0.0,0.0,0.0,0.0025,0.01,-0.05,-0.01,0.02,0.0,0.0,0.0,0.02,0.0,0.0,0.0,0.02,-2.24082421875,0.11031749999999999,9.571575312499998,0.04,0.0,0.0,0.0,0.04,0.0,0.0,0.0,0.04
1614455811.7984269,9,1614455811,774673938,base_imu_link,0.11188846325080003,0.023706798937136692,-0.9610796821577318,0.251485196421423,0.0025,0.0,0.0,0.0,0.0025,0.0,0.0,0.0,0.0025,0.01,-0.05,-0.01,0.02,0.0,0.0,0.0,0.02,0.0,0.0,0.0,0.02,-2.23622765625,0.10074132812499999,9.566595703125,0.04,0.0,0.0,0.0,0.04,0.0,0.0,0.0,0.04
1614455811.8184173,10,1614455811,794572114,base_imu_link,0.11191116858981777,0.023599382816778126,-0.961320647777118,0.250562510429854,0.0025,0.0,0.0,0.0,0.0025,0.0,0.0,0.0,0.0025,0.01,-0.05,-0.01,0.02,0.0,0.0,0.0,0.02,0.0,0.0,0.0,0.02,-2.250400390625,0.10533789062499999,9.566595703125,0.04,0.0,0.0,0.0,0.04,0.0,0.0,0.0,0.04
1614455811.8406932,11,1614455811,814660072,base_imu_link,0.11199709242605607,0.023611580990503592,-0.9613329808196075,0.2504756365791423,0.0025,0.0,0.0,0.0,0.0025,0.0,0.0,0.0,0.0025,0.01,-0.05,-0.01,0.02,0.0,0.0,0.0,0.02,0.0,0.0,0.0,0.02,-2.245803828125,0.11031749999999999,9.561616093749999,0.04,0.0,0.0,0.0,0.04,0.0,0.0,0.0,0.04
1614455811.8585112,12,1614455811,834661960,base_imu_link,0.11199090709059856,0.023640900951244992,-0.9612673735076797,0.25072730437845264,0.0025,0.0,0.0,0.0,0.0025,0.0,0.0,0.0,0.0025,0.01,-0.05,-0.01,0.02,0.0,0.0,0.0,0.02,0.0,0.0,0.0,0.02,-2.245803828125,0.1149140625,9.571575312499998,0.04,0.0,0.0,0.0,0.04,0.0,0.0,0.0,0.04
1614455811.8786156,13,1614455811,854762077,base_imu_link,0.11210486850457067,0.023539870874104363,-0.9613473566013598,0.2503789785353023,0.0025,0.0,0.0,0.0,0.0025,0.0,0.0,0.0,0.0025,0.01,-0.05,-0.01,0.02,0.0,0.0,0.0,0.02,0.0,0.0,0.0,0.02,-2.245803828125,0.1149140625,9.571575312499998,0.04,0.0,0.0,0.0,0.04,0.0,0.0,0.0,0.04
1614455811.898579,14,1614455811,874748945,base_imu_link,0.11210075831461427,0.023559436506101462,-0.9613036425838919,0.2505467614872407,0.0025,0.0,0.0,0.0,0.0025,0.0,0.0,0.0,0.0025,0.01,-0.05,-0.01,0.02,0.0,0.0,0.0,0.02,0.0,0.0,0.0,0.02,-2.250400390625,0.11031749999999999,9.571575312499998,0.04,0.0,0.0,0.0,0.04,0.0,0.0,0.0,0.04
1614455811.9184692,15,1614455811,894681930,base_imu_link,0.11221877079005568,0.023438765432005907,-0.961427202829883,0.2500306089583819,0.0025,0.0,0.0,0.0,0.0025,0.0,0.0,0.0,0.0025,0.01,-0.05,-0.01,0.02,0.0,0.0,0.0,0.02,0.0,0.0,0.0,0.02,-2.245803828125,0.10533789062499999,9.571575312499998,0.04,0.0,0.0,0.0,0.04,0.0,0.0,0.0,0.04
1614455811.938664,16,1614455811,914779901,base_imu_link,0.11220720409444698,0.02347370830087658,-0.9615341629330303,0.2496208762916062,0.0025,0.0,0.0,0.0,0.0025,0.0,0.0,0.0,0.0025,0.01,-0.05,-0.01,0.02,0.0,0.0,0.0,0.02,0.0,0.0,0.0,0.02,-2.250400390625,0.10074132812499999,9.571575312499998,0.04,0.0,0.0,0.0,0.04,0.0,0.0,0.0,0.04
1614455811.9586453,17,1614455811,934803009,base_imu_link,0.11220925213467854,0.023463916285728227,-0.9615559428026169,0.24953696565615896,0.0025,0.0,0.0,0.0,0.0025,0.0,0.0,0.0,0.0025,0.01,-0.05,-0.01,0.02,0.0,0.0,0.0,0.02,0.0,0.0,0.0,0.02,-2.250400390625,0.11031749999999999,9.566595703125,0.04,0.0,0.0,0.0,0.04,0.0,0.0,0.0,0.04
1614455811.9787529,18,1614455811,954960107,base_imu_link,0.11229518428176706,0.02347600090861421,-0.9615681631715969,0.2494500682366396,0.0025,0.0,0.0,0.0,0.0025,0.0,0.0,0.0,0.0025,0.01,-0.05,-0.01,0.02,0.0,0.0,0.0,0.02,0.0,0.0,0.0,0.02,-2.24082421875,0.1149140625,9.561616093749999,0.04,0.0,0.0,0.0,0.04,0.0,0.0,0.0,0.04
1614455811.99891,19,1614455811,974982976,base_imu_link,0.11232103345806993,0.023372484804734205,-0.9616137290715779,0.24927243822375897,0.0025,0.0,0.0,0.0,0.0025,0.0,0.0,0.0,0.0025,0.01,-0.05,-0.01,0.02,0.0,0.0,0.0,0.02,0.0,0.0,0.0,0.02,-2.245803828125,0.10533789062499999,9.566595703125,0.04,0.0,0.0,0.0,0.04,0.0,0.0,0.0,0.04
1614455812.0188563,20,1614455811,994944095,base_imu_link,0.11233528993902733,0.023303867433348127,-0.9617658215133356,0.24868497535183437,0.0025,0.0,0.0,0.0,0.0025,0.0,0.0,0.0,0.0025,0.01,-0.05,-0.01,0.02,0.0,0.0,0.0,0.02,0.0,0.0,0.0,0.02,-2.24082421875,0.10074132812499999,9.566595703125,0.04,0.0,0.0,0.0,0.04,0.0,0.0,0.0,0.04
1614455812.0387588,21,1614455812,14879941,base_imu_link,0.11230541692950946,0.023427000657923136,-0.9616769147588919,0.24903048124332466,0.0025,0.0,0.0,0.0,0.0025,0.0,0.0,0.0,0.0025,0.01,-0.05,-0.01,0.02,0.0,0.0,0.0,0.02,0.0,0.0,0.0,0.02,-2.24082421875,0.10074132812499999,9.585748046874999,0.04,0.0,0.0,0.0,0.04,0.0,0.0,0.0,0.04
1614455812.058823,22,1614455812,35008907,base_imu_link,0.11230950400193286,0.023407399308276546,-0.9617203641298494,0.24886263316619578,0.0025,0.0,0.0,0.0,0.0025,0.0,0.0,0.0,0.0025,0.01,-0.05,-0.01,0.02,0.0,0.0,0.0,0.02,0.0,0.0,0.0,0.02,-2.245803828125,0.10533789062499999,9.5807684375,0.04,0.0,0.0,0.0,0.04,0.0,0.0,0.0,0.04
1614455812.0789845,23,1614455812,55172920,base_imu_link,0.11229518428176706,0.02347600090861421,-0.9615681631715969,0.2494500682366396,0.0025,0.0,0.0,0.0,0.0025,0.0,0.0,0.0,0.0025,0.01,-0.05,-0.01,0.02,0.0,0.0,0.0,0.02,0.0,0.0,0.0,0.02,-2.245803828125,0.09576171874999999,9.5807684375,0.04,0.0,0.0,0.0,0.04,0.0,0.0,0.0,0.04
1614455812.0989254,24,1614455812,74937105,base_imu_link,0.11226106389767618,0.02361869646178439,-0.9614353621583661,0.24996330751016124,0.0025,0.0,0.0,0.0,0.0025,0.0,0.0,0.0,0.0025,0.01,-0.05,-0.01,0.02,0.0,0.0,0.0,0.02,0.0,0.0,0.0,0.02,-2.245803828125,0.10074132812499999,9.5807684375,0.04,0.0,0.0,0.0,0.04,0.0,0.0,0.0,0.04
1614455812.119089,25,1614455812,95297098,base_imu_link,0.11226724341075386,0.023589305774918058,-0.9615007694506267,0.2497115957577075,0.0025,0.0,0.0,0.0,0.0025,0.0,0.0,0.0,0.0025,0.01,-0.05,-0.01,0.02,0.0,0.0,0.0,0.02,0.0,0.0,0.0,0.02,-2.24082421875,0.11031749999999999,9.576171875,0.04,0.0,0.0,0.0,0.04,0.0,0.0,0.0,0.04
1614455812.138839,26,1614455812,114999055,base_imu_link,0.11228368449273209,0.023510922711128025,-0.9616748667056234,0.2490402807915406,0.0025,0.0,0.0,0.0,0.0025,0.0,0.0,0.0,0.0025,0.01,-0.05,-0.01,0.02,0.0,0.0,0.0,0.02,0.0,0.0,0.0,0.02,-2.24082421875,0.10074132812499999,9.571575312499998,0.04,0.0,0.0,0.0,0.04,0.0,0.0,0.0,0.04
1614455812.1590116,27,1614455812,135260105,base_imu_link,0.11228983578993297,0.023481526105897148,-0.9617400323418493,0.24878850636857516,0.0025,0.0,0.0,0.0,0.0025,0.0,0.0,0.0,0.0025,0.01,-0.05,-0.01,0.02,0.0,0.0,0.0,0.02,0.0,0.0,0.0,0.02,-2.24082421875,0.11031749999999999,9.571575312499998,0.04,0.0,0.0,0.0,0.04,0.0,0.0,0.0,0.04
1614455812.179397,28,1614455812,155249118,base_imu_link,0.11219978973397925,0.023489083331987844,-0.9616844220909365,0.24904325418588463,0.0025,0.0,0.0,0.0,0.0025,0.0,0.0,0.0,0.0025,0.01,-0.05,-0.01,0.02,0.0,0.0,0.0,0.02,0.0,0.0,0.0,0.02,-2.245803828125,0.11031749999999999,9.571575312499998,0.04,0.0,0.0,0.0,0.04,0.0,0.0,0.0,0.04
1614455812.1992884,29,1614455812,175617933,base_imu_link,0.11219363646138708,0.023518456362957636,-0.9616191897637947,0.24929501404139004,0.0025,0.0,0.0,0.0,0.0025,0.0,0.0,0.0,0.0025,0.01,-0.05,-0.01,0.02,0.0,0.0,0.0,0.02,0.0,0.0,0.0,0.02,-2.231248046875,0.10533789062499999,9.571575312499998,0.04,0.0,0.0,0.0,0.04,0.0,0.0,0.0,0.04
1614455812.2197037,30,1614455812,195441007,base_imu_link,0.11222152243055368,0.023405160445001443,-0.9616864682383233,0.24903346195885614,0.0025,0.0,0.0,0.0,0.0025,0.0,0.0,0.0,0.0025,0.01,-0.05,-0.01,0.02,0.0,0.0,0.0,0.02,0.0,0.0,0.0,0.02,-2.23622765625,0.10074132812499999,9.576171875,0.04,0.0,0.0,0.0,0.04,0.0,0.0,0.0,0.04
1614455812.23919,31,1614455812,215398073,base_imu_link,0.11211794159721898,0.023457459727142683,-0.9617156998738565,0.24896230110458564,0.0025,0.0,0.0,0.0,0.0025,0.0,0.0,0.0,0.0025,0.01,-0.05,-0.01,0.02,0.0,0.0,0.0,0.02,0.0,0.0,0.0,0.02,-2.231248046875,0.10533789062499999,9.566595703125,0.04,0.0,0.0,0.0,0.04,0.0,0.0,0.0,0.04
1614455812.2594652,32,1614455812,235291004,base_imu_link,0.11210564393170364,0.023516161325905394,-0.9615852116938776,0.2494658201172911,0.0025,0.0,0.0,0.0,0.0025,0.0,0.0,0.0,0.0025,0.01,-0.05,-0.01,0.02,0.0,0.0,0.0,0.02,0.0,0.0,0.0,0.02,-2.245803828125,0.10533789062499999,9.5807684375,0.04,0.0,0.0,0.0,0.04,0.0,0.0,0.0,0.04
1614455812.2791822,33,1614455812,255254030,base_imu_link,0.11209948357333561,0.023545509708634144,-0.9615198687426345,0.24971755398509474,0.0025,0.0,0.0,0.0,0.0025,0.0,0.0,0.0,0.0025,0.01,-0.05,-0.01,0.02,0.0,0.0,0.0,0.02,0.0,0.0,0.0,0.02,-2.245803828125,0.10533789062499999,9.5807684375,0.04,0.0,0.0,0.0,0.04,0.0,0.0,0.0,0.04
1614455812.2994394,34,1614455812,275268077,base_imu_link,0.11209331553179018,0.023574856477579113,-0.9614544598898592,0.24996927073752723,0.0025,0.0,0.0,0.0,0.0025,0.0,0.0,0.0,0.0025,0.01,-0.05,-0.01,0.02,0.0,0.0,0.0,0.02,0.0,0.0,0.0,0.02,-2.250400390625,0.10533789062499999,9.5807684375,0.04,0.0,0.0,0.0,0.04,0.0,0.0,0.0,0.04
1614455812.3192112,35,1614455812,295331954,base_imu_link,0.11210359133262673,0.023525944299333457,-0.9615634380327989,0.24954973330720193,0.0025,0.0,0.0,0.0,0.0025,0.0,0.0,0.0,0.0025,0.01,-0.05,-0.01,0.02,0.0,0.0,0.0,0.02,0.0,0.0,0.0,0.02,-2.250400390625,0.10533789062499999,9.571575312499998,0.04,0.0,0.0,0.0,0.04,0.0,0.0,0.0,0.04
1614455812.3390973,36,1614455812,315275907,base_imu_link,0.11218953000761593,0.023538037488212007,-0.9615756649296795,0.2494628444536751,0.0025,0.0,0.0,0.0,0.0025,0.0,0.0,0.0,0.0025,0.01,-0.05,-0.01,0.02,0.0,0.0,0.0,0.02,0.0,0.0,0.0,0.02,-2.2553799999999997,0.10074132812499999,9.576171875,0.04,0.0,0.0,0.0,0.04,0.0,0.0,0.0,0.04
1614455812.3593447,37,1614455812,335485935,base_imu_link,0.1122038876434821,0.02346950041681901,-0.9617278736910788,0.2488754047982846,0.0025,0.0,0.0,0.0,0.0025,0.0,0.0,0.0,0.0025,0.01,-0.05,-0.01,0.02,0.0,0.0,0.0,0.02,0.0,0.0,0.0,0.02,-2.24082421875,0.10533789062499999,9.5807684375,0.04,0.0,0.0,0.0,0.04,0.0,0.0,0.0,0.04
1614455812.3822215,38,1614455812,355334997,base_imu_link,0.11219568840667538,0.02350866553163823,-0.9616409411962118,0.2492110959871928,0.0025,0.0,0.0,0.0,0.0025,0.0,0.0,0.0,0.0025,0.01,-0.05,-0.01,0.02,0.0,0.0,0.0,0.02,0.0,0.0,0.0,0.02,-2.23622765625,0.1149140625,9.571575312499998,0.04,0.0,0.0,0.0,0.04,0.0,0.0,0.0,0.04
1614455812.3998065,39,1614455812,375586986,base_imu_link,0.11220310545047932,0.02349329179481118,-0.9614905812265186,0.24978869185894667,0.0025,0.0,0.0,0.0,0.0025,0.0,0.0,0.0,0.0025,0.01,-0.05,-0.01,0.02,0.0,0.0,0.0,0.02,0.0,0.0,0.0,0.02,-2.24082421875,0.10074132812499999,9.566595703125,0.04,0.0,0.0,0.0,0.04,0.0,0.0,0.0,0.04
1614455812.4200547,40,1614455812,395473003,base_imu_link,0.11218336391920734,0.023567407831514144,-0.9615103227577905,0.24971457582224377,0.0025,0.0,0.0,0.0,0.0025,0.0,0.0,0.0,0.0025,0.01,-0.05,-0.01,0.02,0.0,0.0,0.0,0.02,0.0,0.0,0.0,0.02,-2.24082421875,0.10533789062499999,9.571575312499998,0.04,0.0,0.0,0.0,0.04,0.0,0.0,0.0,0.04
1614455812.4404442,41,1614455812,415350914,base_imu_link,0.11217924892194968,0.023586987163126145,-0.9614667246979889,0.24988238722726183,0.0025,0.0,0.0,0.0,0.0025,0.0,0.0,0.0,0.0025,0.01,-0.05,-0.01,0.02,0.0,0.0,0.0,0.02,0.0,0.0,0.0,0.02,-2.245803828125,0.1149140625,9.585748046874999,0.04,0.0,0.0,0.0,0.04,0.0,0.0,0.0,0.04
1614455812.4618201,42,1614455812,435642957,base_imu_link,0.11218256096461103,0.023591198517855176,-0.9612722333903745,0.2506276554584386,0.0025,0.0,0.0,0.0,0.0025,0.0,0.0,0.0,0.0025,0.01,-0.05,-0.01,0.02,0.0,0.0,0.0,0.02,0.0,0.0,0.0,0.02,-2.245803828125,0.11031749999999999,9.5807684375,0.04,0.0,0.0,0.0,0.04,0.0,0.0,0.0,0.04
1614455812.4830122,43,1614455812,455467939,base_imu_link,0.11217225668373391,0.023640145146890154,-0.9611627849429049,0.25104706572416197,0.0025,0.0,0.0,0.0,0.0025,0.0,0.0,0.0,0.0025,0.01,-0.05,-0.01,0.02,0.0,0.0,0.0,0.02,0.0,0.0,0.0,0.02,-2.24082421875,0.10074132812499999,9.585748046874999,0.04,0.0,0.0,0.0,0.04,0.0,0.0,0.0,0.04
1614455812.5042732,44,1614455812,475615024,base_imu_link,0.1120904679003158,0.02360834744502166,-0.9611942294300847,0.25096618546551064,0.0025,0.0,0.0,0.0,0.0025,0.0,0.0,0.0,0.0025,0.01,-0.05,-0.01,0.02,0.0,0.0,0.0,0.02,0.0,0.0,0.0,0.02,-2.24082421875,0.10074132812499999,9.566595703125,0.04,0.0,0.0,0.0,0.04,0.0,0.0,0.0,0.04
1614455812.5199127,45,1614455812,495686054,base_imu_link,0.11209870193908411,0.023569219053014248,-0.9612817745939559,0.2506306501014956,0.0025,0.0,0.0,0.0,0.0025,0.0,0.0,0.0,0.0025,0.01,-0.05,-0.01,0.02,0.0,0.0,0.0,0.02,0.0,0.0,0.0,0.02,-2.231248046875,0.11031749999999999,9.566595703125,0.04,0.0,0.0,0.0,0.04,0.0,0.0,0.0,0.04
1614455812.5394757,46,1614455812,515671014,base_imu_link,0.11209458662699814,0.023588783608295655,-0.9612380166525125,0.2507984216033814,0.0025,0.0,0.0,0.0,0.0025,0.0,0.0,0.0,0.0025,0.01,-0.05,-0.01,0.02,0.0,0.0,0.0,0.02,0.0,0.0,0.0,0.02,-2.231248046875,0.10533789062499999,9.561616093749999,0.04,0.0,0.0,0.0,0.04,0.0,0.0,0.0,0.04
1614455812.5594578,47,1614455812,535697937,base_imu_link,0.11201689651764046,0.023537464180009373,-0.9613131767280231,0.25054975338963653,0.0025,0.0,0.0,0.0,0.0025,0.0,0.0,0.0,0.0025,0.01,-0.05,-0.01,0.02,0.0,0.0,0.0,0.02,0.0,0.0,0.0,0.02,-2.23622765625,0.09576171874999999,9.566595703125,0.04,0.0,0.0,0.0,0.04,0.0,0.0,0.0,0.04
1614455812.579321,48,1614455812,555547952,base_imu_link,0.11199296972196487,0.023631127810934384,-0.9612892499323474,0.25064341702056175,0.0025,0.0,0.0,0.0,0.0025,0.0,0.0,0.0,0.0025,0.01,-0.05,-0.01,0.02,0.0,0.0,0.0,0.02,0.0,0.0,0.0,0.02,-2.23622765625,0.10074132812499999,9.566595703125,0.04,0.0,0.0,0.0,0.04,0.0,0.0,0.0,0.04
1614455812.5994482,49,1614455812,575733900,base_imu_link,0.11200121171852073,0.023592033450822936,-0.9613766824229902,0.25030784850779886,0.0025,0.0,0.0,0.0,0.0025,0.0,0.0,0.0,0.0025,0.01,-0.05,-0.01,0.02,0.0,0.0,0.0,0.02,0.0,0.0,0.0,0.02,-2.231248046875,0.10074132812499999,9.571575312499998,0.04,0.0,0.0,0.0,0.04,0.0,0.0,0.0,0.04
1614455812.6196353,50,1614455812,595664024,base_imu_link,0.11192350985666011,0.02354078303365384,-0.9614517102190414,0.25005912979215317,0.0025,0.0,0.0,0.0,0.0025,0.0,0.0,0.0,0.0025,0.01,-0.05,-0.01,0.02,0.0,0.0,0.0,0.02,0.0,0.0,0.0,0.02,-2.245803828125,0.09576171874999999,9.576171875,0.04,0.0,0.0,0.0,0.04,0.0,0.0,0.0,0.04
1614455812.6394808,51,1614455812,615737915,base_imu_link,0.11198968772460122,0.023627066834389254,-0.961483750116268,0.24989811887748908,0.0025,0.0,0.0,0.0,0.0025,0.0,0.0,0.0,0.0025,0.01,-0.05,-0.01,0.02,0.0,0.0,0.0,0.02,0.0,0.0,0.0,0.02,-2.245803828125,0.10533789062499999,9.576171875,0.04,0.0,0.0,0.0,0.04,0.0,0.0,0.0,0.04
1614455812.6597502,52,1614455812,635730028,base_imu_link,0.11198968772460122,0.023627066834389254,-0.961483750116268,0.24989811887748908,0.0025,0.0,0.0,0.0,0.0025,0.0,0.0,0.0,0.0025,0.01,-0.05,-0.01,0.02,0.0,0.0,0.0,0.02,0.0,0.0,0.0,0.02,-2.245803828125,0.10533789062499999,9.576171875,0.04,0.0,0.0,0.0,0.04,0.0,0.0,0.0,0.04
1614455812.6795833,53,1614455812,655894994,base_imu_link,0.11198968772460122,0.023627066834389254,-0.961483750116268,0.24989811887748908,0.0025,0.0,0.0,0.0,0.0025,0.0,0.0,0.0,0.0025,0.01,-0.05,-0.01,0.02,0.0,0.0,0.0,0.02,0.0,0.0,0.0,0.02,-2.245803828125,0.10074132812499999,9.571575312499998,0.04,0.0,0.0,0.0,0.04,0.0,0.0,0.0,0.04
1614455812.6995122,54,1614455812,675828933,base_imu_link,0.112079752807899,0.02361963734293023,-0.9615395995080713,0.2496434263507987,0.0025,0.0,0.0,0.0,0.0025,0.0,0.0,0.0,0.0025,0.01,-0.05,-0.01,0.02,0.0,0.0,0.0,0.02,0.0,0.0,0.0,0.02,-2.24082421875,0.10074132812499999,9.566595703125,0.04,0.0,0.0,0.0,0.04,0.0,0.0,0.0,0.04
1614455812.7199216,55,1614455812,696182966,base_imu_link,0.11208181358332713,0.023609856449449143,-0.9615613813455012,0.2495595152408349,0.0025,0.0,0.0,0.0,0.0025,0.0,0.0,0.0,0.0025,0.01,-0.05,-0.01,0.02,0.0,0.0,0.0,0.02,0.0,0.0,0.0,0.02,-2.245803828125,0.10074132812499999,9.566595703125,0.04,0.0,0.0,0.0,0.04,0.0,0.0,0.0,0.04
1614455812.740001,56,1614455812,715838909,base_imu_link,0.11208593257351224,0.023590294123163425,-0.9616049230520691,0.24939168732003314,0.0025,0.0,0.0,0.0,0.0025,0.0,0.0,0.0,0.0025,0.01,-0.05,-0.01,0.02,0.0,0.0,0.0,0.02,0.0,0.0,0.0,0.02,-2.23622765625,0.10074132812499999,9.561616093749999,0.04,0.0,0.0,0.0,0.04,0.0,0.0,0.0,0.04
1614455812.7597108,57,1614455812,735959053,base_imu_link,0.11206943612803057,0.02366853911073867,-0.9614305804860996,0.2500629533706868,0.0025,0.0,0.0,0.0,0.0025,0.0,0.0,0.0,0.0025,0.01,-0.05,-0.01,0.02,0.0,0.0,0.0,0.02,0.0,0.0,0.0,0.02,-2.23622765625,0.11031749999999999,9.571575312499998,0.04,0.0,0.0,0.0,0.04,0.0,0.0,0.0,0.04
1614455812.7799401,58,1614455812,755835056,base_imu_link,0.11206530348177021,0.02368809855665978,-0.9613869216241602,0.2502307508527467,0.0025,0.0,0.0,0.0,0.0025,0.0,0.0,0.0,0.0025,0.01,-0.05,-0.01,0.02,0.0,0.0,0.0,0.02,0.0,0.0,0.0,0.02,-2.24082421875,0.10533789062499999,9.571575312499998,0.04,0.0,0.0,0.0,0.04,0.0,0.0,0.0,0.04
1614455812.7996995,59,1614455812,776036977,base_imu_link,0.11205909811172343,0.023717436372391352,-0.9613213784213167,0.2504824327821183,0.0025,0.0,0.0,0.0,0.0025,0.0,0.0,0.0,0.0025,0.01,-0.05,-0.01,0.02,0.0,0.0,0.0,0.02,0.0,0.0,0.0,0.02,-2.23622765625,0.10533789062499999,9.566595703125,0.04,0.0,0.0,0.0,0.04,0.0,0.0,0.0,0.04
1614455812.8205857,60,1614455812,796017885,base_imu_link,0.1120487387609458,0.023766329118578965,-0.961211993334513,0.2509018645052306,0.0025,0.0,0.0,0.0,0.0025,0.0,0.0,0.0,0.0025,0.01,-0.05,-0.01,0.02,0.0,0.0,0.0,0.02,0.0,0.0,0.0,0.02,-2.24082421875,0.11031749999999999,9.566595703125,0.04,0.0,0.0,0.0,0.04,0.0,0.0,0.0,0.04
1614455812.839956,61,1614455812,816262960,base_imu_link,0.11205821819011773,0.023741124255264257,-0.961082565134066,0.2513953415448977,0.0025,0.0,0.0,0.0,0.0025,0.0,0.0,0.0,0.0025,0.01,-0.05,-0.01,0.02,0.0,0.0,0.0,0.02,0.0,0.0,0.0,0.02,-2.245803828125,0.1149140625,9.5807684375,0.04,0.0,0.0,0.0,0.04,0.0,0.0,0.0,0.04
1614455812.8597648,62,1614455812,836081027,base_imu_link,0.11206775387326481,0.02371593567620575,-0.9609528763687869,0.2518887499182096,0.0025,0.0,0.0,0.0,0.0025,0.0,0.0,0.0,0.0025,0.01,-0.05,-0.01,0.02,0.0,0.0,0.0,0.02,0.0,0.0,0.0,0.02,-2.245803828125,0.1149140625,9.576171875,0.04,0.0,0.0,0.0,0.04,0.0,0.0,0.0,0.04
1614455812.8799627,63,1614455812,856252908,base_imu_link,0.11207809123394576,0.023667034637907612,-0.9610626920902379,0.2514694311622546,0.0025,0.0,0.0,0.0,0.0025,0.0,0.0,0.0,0.0025,0.01,-0.05,-0.01,0.02,0.0,0.0,0.0,0.02,0.0,0.0,0.0,0.02,-2.245803828125,0.11031749999999999,9.5807684375,0.04,0.0,0.0,0.0,0.04,0.0,0.0,0.0,0.04
1614455812.8999622,64,1614455812,876240968,base_imu_link,0.11206982305235351,0.023706155829462585,-0.9609748541498957,0.2518048900009493,0.0025,0.0,0.0,0.0,0.0025,0.0,0.0,0.0,0.0025,0.01,-0.05,-0.01,0.02,0.0,0.0,0.0,0.02,0.0,0.0,0.0,0.02,-2.24082421875,0.11031749999999999,9.576171875,0.04,0.0,0.0,0.0,0.04,0.0,0.0,0.0,0.04
1614455812.9199772,65,1614455812,896262884,base_imu_link,0.11209591790855682,0.023602730794267685,-0.9610208511433376,0.25162738315816563,0.0025,0.0,0.0,0.0,0.0025,0.0,0.0,0.0,0.0025,0.01,-0.05,-0.01,0.02,0.0,0.0,0.0,0.02,0.0,0.0,0.0,0.02,-2.245803828125,0.10533789062499999,9.5807684375,0.04,0.0,0.0,0.0,0.04,0.0,0.0,0.0,0.04
1614455812.9399707,66,1614455812,916311025,base_imu_link,0.11206361295476892,0.023735494827796137,-0.9609088988525127,0.25205646399736464,0.0025,0.0,0.0,0.0,0.0025,0.0,0.0,0.0,0.0025,0.01,-0.05,-0.01,0.02,0.0,0.0,0.0,0.02,0.0,0.0,0.0,0.02,-2.245803828125,0.11031749999999999,9.5807684375,0.04,0.0,0.0,0.0,0.04,0.0,0.0,0.0,0.04
1614455812.9599574,67,1614455812,936309099,base_imu_link,0.11209179674761105,0.023622294863133726,-0.9609769192431332,0.25179510910513775,0.0025,0.0,0.0,0.0,0.0025,0.0,0.0,0.0,0.0025,0.01,-0.05,-0.01,0.02,0.0,0.0,0.0,0.02,0.0,0.0,0.0,0.02,-2.23622765625,0.10533789062499999,9.566595703125,0.04,0.0,0.0,0.0,0.04,0.0,0.0,0.0,0.04
1614455812.9800436,68,1614455812,956406116,base_imu_link,0.11210414998641215,0.023563600500190768,-0.9611086271193017,0.25129190827430625,0.0025,0.0,0.0,0.0,0.0025,0.0,0.0,0.0,0.0025,0.01,-0.05,-0.01,0.02,0.0,0.0,0.0,0.02,0.0,0.0,0.0,0.02,-2.24082421875,0.1149140625,9.571575312499998,0.04,0.0,0.0,0.0,0.04,0.0,0.0,0.0,0.04
1614455813.0000427,69,1614455812,976365089,base_imu_link,0.11210414998641215,0.023563600500190768,-0.9611086271193017,0.25129190827430625,0.0025,0.0,0.0,0.0,0.0025,0.0,0.0,0.0,0.0025,0.01,-0.05,-0.01,0.02,0.0,0.0,0.0,0.02,0.0,0.0,0.0,0.02,-2.24082421875,0.11031749999999999,9.576171875,0.04,0.0,0.0,0.0,0.04,0.0,0.0,0.0,0.04
1614455813.021832,70,1614455812,996603965,base_imu_link,0.11211031508077834,0.02353425089517796,-0.9611743822496223,0.25104028201535405,0.0025,0.0,0.0,0.0,0.0025,0.0,0.0,0.0,0.0025,0.01,-0.05,-0.01,0.02,0.0,0.0,0.0,0.02,0.0,0.0,0.0,0.02,-2.23622765625,0.11031749999999999,9.571575312499998,0.04,0.0,0.0,0.0,0.04,0.0,0.0,0.0,0.04
1614455813.0399542,71,1614455813,16390085,base_imu_link,0.11211236840471686,0.023524467334960577,-0.9611962859870952,0.2509564027712899,0.0025,0.0,0.0,0.0,0.0025,0.0,0.0,0.0,0.0025,0.01,-0.05,-0.01,0.02,0.0,0.0,0.0,0.02,0.0,0.0,0.0,0.02,-2.24082421875,0.11031749999999999,9.576171875,0.04,0.0,0.0,0.0,0.04,0.0,0.0,0.0,0.04
1614455813.0600376,72,1614455813,36298990,base_imu_link,0.11213222205124762,0.02345037251739224,-0.9611764323405644,0.25103049758885787,0.0025,0.0,0.0,0.0,0.0025,0.0,0.0,0.0,0.0025,0.01,-0.05,-0.01,0.02,0.0,0.0,0.0,0.02,0.0,0.0,0.0,0.02,-2.231248046875,0.1149140625,9.571575312499998,0.04,0.0,0.0,0.0,0.04,0.0,0.0,0.0,0.04
1614455813.0802302,73,1614455813,56556940,base_imu_link,0.11204632735850743,0.023438132596836046,-0.9611640506078978,0.2511173874602511,0.0025,0.0,0.0,0.0,0.0025,0.0,0.0,0.0,0.0025,0.01,-0.05,-0.01,0.02,0.0,0.0,0.0,0.02,0.0,0.0,0.0,0.02,-2.23622765625,0.11031749999999999,9.571575312499998,0.04,0.0,0.0,0.0,0.04,0.0,0.0,0.0,0.04
1614455813.1000664,74,1614455813,76392889,base_imu_link,0.11205041637776685,0.023418576466680427,-0.9612078642205116,0.2509496288630171,0.0025,0.0,0.0,0.0,0.0025,0.0,0.0,0.0,0.0025,0.01,-0.05,-0.01,0.02,0.0,0.0,0.0,0.02,0.0,0.0,0.0,0.02,-2.24082421875,0.11031749999999999,9.571575312499998,0.04,0.0,0.0,0.0,0.04,0.0,0.0,0.0,0.04
1614455813.1201484,75,1614455813,96501111,base_imu_link,0.11207284496849995,0.02331100501529811,-0.9614483156729694,0.2500268200722741,0.0025,0.0,0.0,0.0,0.0025,0.0,0.0,0.0,0.0025,0.01,-0.05,-0.01,0.02,0.0,0.0,0.0,0.02,0.0,0.0,0.0,0.02,-2.23622765625,0.1149140625,9.5807684375,0.04,0.0,0.0,0.0,0.04,0.0,0.0,0.0,0.04
1614455813.1413467,76,1614455813,116389989,base_imu_link,0.1120789439345964,0.023281663614576065,-0.9615137395923359,0.24977510492642174,0.0025,0.0,0.0,0.0,0.0025,0.0,0.0,0.0,0.0025,0.01,-0.05,-0.01,0.02,0.0,0.0,0.0,0.02,0.0,0.0,0.0,0.02,-2.23622765625,0.10074132812499999,9.571575312499998,0.04,0.0,0.0,0.0,0.04,0.0,0.0,0.0,0.04
1614455813.160518,77,1614455813,136442899,base_imu_link,0.11207487881070294,0.0233012247258149,-0.9614701309681608,0.24994291692686782,0.0025,0.0,0.0,0.0,0.0025,0.0,0.0,0.0,0.0025,0.01,-0.05,-0.01,0.02,0.0,0.0,0.0,0.02,0.0,0.0,0.0,0.02,-2.23622765625,0.09576171874999999,9.576171875,0.04,0.0,0.0,0.0,0.04,0.0,0.0,0.0,0.04
1614455813.1806536,78,1614455813,156500101,base_imu_link,0.11196715170314145,0.023372977696536623,-0.961455804216998,0.25003959164606016,0.0025,0.0,0.0,0.0,0.0025,0.0,0.0,0.0,0.0025,0.01,-0.05,-0.01,0.02,0.0,0.0,0.0,0.02,0.0,0.0,0.0,0.02,-2.23622765625,0.10074132812499999,9.571575312499998,0.04,0.0,0.0,0.0,0.04,0.0,0.0,0.0,0.04
1614455813.2002213,79,1614455813,176513910,base_imu_link,0.11195694265956246,0.023421830356326383,-0.961346612343289,0.25045908206564405,0.0025,0.0,0.0,0.0,0.0025,0.0,0.0,0.0,0.0025,0.01,-0.05,-0.01,0.02,0.0,0.0,0.0,0.02,0.0,0.0,0.0,0.02,-2.24082421875,0.09576171874999999,9.576171875,0.04,0.0,0.0,0.0,0.04,0.0,0.0,0.0,0.04
1614455813.220453,80,1614455813,196631908,base_imu_link,0.11193713639030023,0.02349595531677967,-0.9613664186125512,0.250384957105191,0.0025,0.0,0.0,0.0,0.0025,0.0,0.0,0.0,0.0025,0.01,-0.05,-0.01,0.02,0.0,0.0,0.0,0.02,0.0,0.0,0.0,0.02,-2.24082421875,0.090782109375,9.5807684375,0.04,0.0,0.0,0.0,0.04,0.0,0.0,0.0,0.04
1614455813.2406845,81,1614455813,216542959,base_imu_link,0.11190910872903627,0.023609148818714204,-0.9612987784127628,0.25064640052803205,0.0025,0.0,0.0,0.0,0.0025,0.0,0.0,0.0,0.0025,0.01,-0.05,-0.01,0.02,0.0,0.0,0.0,0.02,0.0,0.0,0.0,0.02,-2.23622765625,0.10074132812499999,9.5807684375,0.04,0.0,0.0,0.0,0.04,0.0,0.0,0.0,0.04
1614455813.2606034,82,1614455813,236649990,base_imu_link,0.11191116858981777,0.023599382816778126,-0.961320647777118,0.250562510429854,0.0025,0.0,0.0,0.0,0.0025,0.0,0.0,0.0,0.0025,0.01,-0.05,-0.01,0.02,0.0,0.0,0.0,0.02,0.0,0.0,0.0,0.02,-2.23622765625,0.10533789062499999,9.576171875,0.04,0.0,0.0,0.0,0.04,0.0,0.0,0.0,0.04
1614455813.280537,83,1614455813,256681919,base_imu_link,0.11189673166792828,0.02366774105205461,-0.9611674084975786,0.2511497010103282,0.0025,0.0,0.0,0.0,0.0025,0.0,0.0,0.0,0.0025,0.01,-0.05,-0.01,0.02,0.0,0.0,0.0,0.02,0.0,0.0,0.0,0.02,-2.231248046875,0.11031749999999999,9.571575312499998,0.04,0.0,0.0,0.0,0.04,0.0,0.0,0.0,0.04
1614455813.30036,84,1614455813,276597976,base_imu_link,0.11192070584198531,0.023574096448020665,-0.9611913826716357,0.25105605640629414,0.0025,0.0,0.0,0.0,0.0025,0.0,0.0,0.0,0.0025,0.01,-0.05,-0.01,0.02,0.0,0.0,0.0,0.02,0.0,0.0,0.0,0.02,-2.231248046875,0.10533789062499999,9.5807684375,0.04,0.0,0.0,0.0,0.04,0.0,0.0,0.0,0.04
1614455813.3204722,85,1614455813,296709060,base_imu_link,0.1118368538559012,0.023552079855786598,-0.9612009006081942,0.25105904947656627,0.0025,0.0,0.0,0.0,0.0025,0.0,0.0,0.0,0.0025,0.01,-0.05,-0.01,0.02,0.0,0.0,0.0,0.02,0.0,0.0,0.0,0.02,-2.23622765625,0.10533789062499999,9.5807684375,0.04,0.0,0.0,0.0,0.04,0.0,0.0,0.0,0.04
1614455813.340407,86,1614455813,316674947,base_imu_link,0.11182862581579395,0.023591116846616206,-0.9611132059096611,0.2513945565841356,0.0025,0.0,0.0,0.0,0.0025,0.0,0.0,0.0,0.0025,0.01,-0.05,-0.01,0.02,0.0,0.0,0.0,0.02,0.0,0.0,0.0,0.02,-2.245803828125,0.09576171874999999,9.571575312499998,0.04,0.0,0.0,0.0,0.04,0.0,0.0,0.0,0.04
1614455813.3606575,87,1614455813,336857080,base_imu_link,0.11189466584182041,0.023677505793871272,-0.9611454878917621,0.2512335777336203,0.0025,0.0,0.0,0.0,0.0025,0.0,0.0,0.0,0.0025,0.01,-0.05,-0.01,0.02,0.0,0.0,0.0,0.02,0.0,0.0,0.0,0.02,-2.24082421875,0.1149140625,9.576171875,0.04,0.0,0.0,0.0,0.04,0.0,0.0,0.0,0.04
1614455813.3802433,88,1614455813,356690883,base_imu_link,0.1119145303225757,0.023603396412085916,-0.9611256234110069,0.25130768711540574,0.0025,0.0,0.0,0.0,0.0025,0.0,0.0,0.0,0.0025,0.01,-0.05,-0.01,0.02,0.0,0.0,0.0,0.02,0.0,0.0,0.0,0.02,-2.245803828125,0.1149140625,9.576171875,0.04,0.0,0.0,0.0,0.04,0.0,0.0,0.0,0.04
1614455813.4007883,89,1614455813,376996040,base_imu_link,0.11191247011152916,0.023613162707373184,-0.9611036890184611,0.2513915601916593,0.0025,0.0,0.0,0.0,0.0025,0.0,0.0,0.0,0.0025,0.01,-0.05,-0.01,0.02,0.0,0.0,0.0,0.02,0.0,0.0,0.0,0.02,-2.250400390625,0.11031749999999999,9.571575312499998,0.04,0.0,0.0,0.0,0.04,0.0,0.0,0.0,0.04
1614455813.4206216,90,1614455813,396889925,base_imu_link,0.1120408069655642,0.023443796374497346,-0.9613370871759468,0.25045608558412447,0.0025,0.0,0.0,0.0,0.0025,0.0,0.0,0.0,0.0025,0.01,-0.05,-0.01,0.02,0.0,0.0,0.0,0.02,0.0,0.0,0.0,0.02,-2.250400390625,0.11031749999999999,9.571575312499998,0.04,0.0,0.0,0.0,0.04,0.0,0.0,0.0,0.04
1614455813.4405982,91,1614455813,416975021,base_imu_link,0.11212262221732928,0.023475546848127735,-0.9613056948722012,0.2505369778966089,0.0025,0.0,0.0,0.0,0.0025,0.0,0.0,0.0,0.0025,0.01,-0.05,-0.01,0.02,0.0,0.0,0.0,0.02,0.0,0.0,0.0,0.02,-2.23622765625,0.11031749999999999,9.571575312499998,0.04,0.0,0.0,0.0,0.04,0.0,0.0,0.0,0.04
1614455813.4605887,92,1614455813,436969995,base_imu_link,0.11211852325376283,0.023495115579712005,-0.9612619532792771,0.2507047535747979,0.0025,0.0,0.0,0.0,0.0025,0.0,0.0,0.0,0.0025,0.01,-0.05,-0.01,0.02,0.0,0.0,0.0,0.02,0.0,0.0,0.0,0.02,-2.23622765625,0.11031749999999999,9.571575312499998,0.04,0.0,0.0,0.0,0.04,0.0,0.0,0.0,0.04
1614455813.4810545,93,1614455813,456908941,base_imu_link,0.11211852325376283,0.023495115579712005,-0.9612619532792771,0.2507047535747979,0.0025,0.0,0.0,0.0,0.0025,0.0,0.0,0.0,0.0025,0.01,-0.05,-0.01,0.02,0.0,0.0,0.0,0.02,0.0,0.0,0.0,0.02,-2.24082421875,0.10533789062499999,9.576171875,0.04,0.0,0.0,0.0,0.04,0.0,0.0,0.0,0.04
1614455813.5006602,94,1614455813,477045059,base_imu_link,0.11213080989798628,0.023436407240237225,-0.9613930902075795,0.2502014036499642,0.0025,0.0,0.0,0.0,0.0025,0.0,0.0,0.0,0.0025,0.01,-0.05,-0.01,0.02,0.0,0.0,0.0,0.02,0.0,0.0,0.0,0.02,-2.24082421875,0.11031749999999999,9.571575312499998,0.04,0.0,0.0,0.0,0.04,0.0,0.0,0.0,0.04
1614455813.5213876,95,1614455813,496980905,base_imu_link,0.11212467041832641,0.023465762214133587,-0.9613275546876041,0.25045308719527287,0.0025,0.0,0.0,0.0,0.0025,0.0,0.0,0.0,0.0025,0.01,-0.05,-0.01,0.02,0.0,0.0,0.0,0.02,0.0,0.0,0.0,0.02,-2.250400390625,0.11031749999999999,9.576171875,0.04,0.0,0.0,0.0,0.04,0.0,0.0,0.0,0.04
1614455813.5411115,96,1614455813,517076015,base_imu_link,0.11211647249122474,0.023504899677153055,-0.9612400715020895,0.2507886385503726,0.0025,0.0,0.0,0.0,0.0025,0.0,0.0,0.0,0.0025,0.01,-0.05,-0.01,0.02,0.0,0.0,0.0,0.02,0.0,0.0,0.0,0.02,-2.245803828125,0.10074132812499999,9.576171875,0.04,0.0,0.0,0.0,0.04,0.0,0.0,0.0,0.04
1614455813.5627103,97,1614455813,537033081,base_imu_link,0.11219621949091255,0.023546476903235913,-0.9611867477500835,0.25095339748050793,0.0025,0.0,0.0,0.0,0.0025,0.0,0.0,0.0,0.0025,0.01,-0.05,-0.01,0.02,0.0,0.0,0.0,0.02,0.0,0.0,0.0,0.02,-2.245803828125,0.1149140625,9.585748046874999,0.04,0.0,0.0,0.0,0.04,0.0,0.0,0.0,0.04
1614455813.5826814,98,1614455813,557318925,base_imu_link,0.11219621949091255,0.023546476903235913,-0.9611867477500835,0.25095339748050793,0.0025,0.0,0.0,0.0,0.0025,0.0,0.0,0.0,0.0025,0.01,-0.05,-0.01,0.02,0.0,0.0,0.0,0.02,0.0,0.0,0.0,0.02,-2.2553799999999997,0.11031749999999999,9.585748046874999,0.04,0.0,0.0,0.0,0.04,0.0,0.0,0.0,0.04
1614455813.60096,99,1614455813,577348947,base_imu_link,0.11220238009917642,0.023517103195070305,-0.9612524142558091,0.2507017507812235,0.0025,0.0,0.0,0.0,0.0025,0.0,0.0,0.0,0.0025,0.01,-0.05,-0.01,0.02,0.0,0.0,0.0,0.02,0.0,0.0,0.0,0.02,-2.245803828125,0.11031749999999999,9.576171875,0.04,0.0,0.0,0.0,0.04,0.0,0.0,0.0,0.04
1614455813.620757,100,1614455813,597074031,base_imu_link,0.11223447151380453,0.023384248708788274,-0.9613637563439484,0.2502725080878758,0.0025,0.0,0.0,0.0,0.0025,0.0,0.0,0.0,0.0025,0.01,-0.05,-0.01,0.02,0.0,0.0,0.0,0.02,0.0,0.0,0.0,0.02,-2.24082421875,0.11031749999999999,9.576171875,0.04,0.0,0.0,0.0,0.04,0.0,0.0,0.0,0.04
1614455813.6409369,101,1614455813,617331981,base_imu_link,0.11224058964951603,0.023354864991826093,-0.961429244587184,0.2500208150711842,0.0025,0.0,0.0,0.0,0.0025,0.0,0.0,0.0,0.0025,0.01,-0.05,-0.01,0.02,0.0,0.0,0.0,0.02,0.0,0.0,0.0,0.02,-2.245803828125,0.10074132812499999,9.576171875,0.04,0.0,0.0,0.0,0.04,0.0,0.0,0.0,0.04
1614455813.6609547,102,1614455813,637321949,base_imu_link,0.11221058228087559,0.02347793574389575,-0.9613398671110195,0.2503661951229835,0.0025,0.0,0.0,0.0,0.0025,0.0,0.0,0.0,0.0025,0.01,-0.05,-0.01,0.02,0.0,0.0,0.0,0.02,0.0,0.0,0.0,0.02,-2.245803828125,0.10533789062499999,9.576171875,0.04,0.0,0.0,0.0,0.04,0.0,0.0,0.0,0.04
1614455813.6837585,103,1614455813,657361030,base_imu_link,0.11220853301721044,0.023487727875067844,-0.9613180148783335,0.25045008689911186,0.0025,0.0,0.0,0.0,0.0025,0.0,0.0,0.0,0.0025,0.01,-0.05,-0.01,0.02,0.0,0.0,0.0,0.02,0.0,0.0,0.0,0.02,-2.24082421875,0.11031749999999999,9.5807684375,0.04,0.0,0.0,0.0,0.04,0.0,0.0,0.0,0.04
1614455813.701674,104,1614455813,677305936,base_imu_link,0.11219621949091255,0.023546476903235913,-0.9611867477500835,0.25095339748050793,0.0025,0.0,0.0,0.0,0.0025,0.0,0.0,0.0,0.0025,0.01,-0.05,-0.01,0.02,0.0,0.0,0.0,0.02,0.0,0.0,0.0,0.02,-2.23622765625,0.1149140625,9.576171875,0.04,0.0,0.0,0.0,0.04,0.0,0.0,0.0,0.04
1614455813.7211115,105,1614455813,697346925,base_imu_link,0.11218799338471083,0.023585639336675318,-0.9610990899319155,0.2512888996542347,0.0025,0.0,0.0,0.0,0.0025,0.0,0.0,0.0,0.0025,0.01,-0.05,-0.01,0.02,0.0,0.0,0.0,0.02,0.0,0.0,0.0,0.02,-2.24082421875,0.11031749999999999,9.571575312499998,0.04,0.0,0.0,0.0,0.04,0.0,0.0,0.0,0.04
1614455813.7412345,106,1614455813,717302083,base_imu_link,0.11212402949570335,0.023489512617366412,-0.9610887476100106,0.25136599615713034,0.0025,0.0,0.0,0.0,0.0025,0.0,0.0,0.0,0.0025,0.01,-0.05,-0.01,0.02,0.0,0.0,0.0,0.02,0.0,0.0,0.0,0.02,-2.24082421875,0.10533789062499999,9.5807684375,0.04,0.0,0.0,0.0,0.04,0.0,0.0,0.0,0.04
1614455813.7609313,107,1614455813,737298011,base_imu_link,0.11210620587161035,0.02355381747786758,-0.9611305528155586,0.25120803476750125,0.0025,0.0,0.0,0.0,0.0025,0.0,0.0,0.0,0.0025,0.01,-0.05,-0.01,0.02,0.0,0.0,0.0,0.02,0.0,0.0,0.0,0.02,-2.23622765625,0.10533789062499999,9.571575312499998,0.04,0.0,0.0,0.0,0.04,0.0,0.0,0.0,0.04
1614455813.7809317,108,1614455813,757401943,base_imu_link,0.11210414998641215,0.023563600500190768,-0.9611086271193017,0.25129190827430625,0.0025,0.0,0.0,0.0,0.0025,0.0,0.0,0.0,0.0025,0.01,-0.05,-0.01,0.02,0.0,0.0,0.0,0.02,0.0,0.0,0.0,0.02,-2.2216718749999997,0.10533789062499999,9.571575312499998,0.04,0.0,0.0,0.0,0.04,0.0,0.0,0.0,0.04
1614455813.8011823,109,1614455813,777401924,base_imu_link,0.11202030573439158,0.02354156148425915,-0.9611181569874272,0.2512949149806806,0.0025,0.0,0.0,0.0,0.0025,0.0,0.0,0.0,0.0025,0.01,-0.05,-0.01,0.02,0.0,0.0,0.0,0.02,0.0,0.0,0.0,0.02,-2.24082421875,0.10533789062499999,9.576171875,0.04,0.0,0.0,0.0,0.04,0.0,0.0,0.0,0.04
1614455813.820936,110,1614455813,797440052,base_imu_link,0.11201619525065601,0.023561112357242953,-0.9610742831123839,0.25146265791578976,0.0025,0.0,0.0,0.0,0.0025,0.0,0.0,0.0,0.0025,0.01,-0.05,-0.01,0.02,0.0,0.0,0.0,0.02,0.0,0.0,0.0,0.02,-2.23622765625,0.11031749999999999,9.576171875,0.04,0.0,0.0,0.0,0.04,0.0,0.0,0.0,0.04
1614455813.8412676,111,1614455813,817430019,base_imu_link,0.11200590411317937,0.02360998639840745,-0.9609644703452157,0.2518819817299268,0.0025,0.0,0.0,0.0,0.0025,0.0,0.0,0.0,0.0025,0.01,-0.05,-0.01,0.02,0.0,0.0,0.0,0.02,0.0,0.0,0.0,0.02,-2.245803828125,0.1149140625,9.576171875,0.04,0.0,0.0,0.0,0.04,0.0,0.0,0.0,0.04
1614455813.8612576,112,1614455813,837598085,base_imu_link,0.1120017816872628,0.023629534756792046,-0.9609204940100367,0.2520496978327156,0.0025,0.0,0.0,0.0,0.0025,0.0,0.0,0.0,0.0025,0.01,-0.05,-0.01,0.02,0.0,0.0,0.0,0.02,0.0,0.0,0.0,0.02,-2.24082421875,0.11031749999999999,9.576171875,0.04,0.0,0.0,0.0,0.04,0.0,0.0,0.0,0.04
1614455813.881083,113,1614455813,857486963,base_imu_link,0.11208560860402282,0.02365163961704106,-0.9609109665063119,0.2520466836425285,0.0025,0.0,0.0,0.0,0.0025,0.0,0.0,0.0,0.0025,0.01,-0.05,-0.01,0.02,0.0,0.0,0.0,0.02,0.0,0.0,0.0,0.02,-2.23622765625,0.10074132812499999,9.576171875,0.04,0.0,0.0,0.0,0.04,0.0,0.0,0.0,0.04
1614455813.9011748,114,1614455813,877631902,base_imu_link,0.11201413872920223,0.02357088752462988,-0.9610523351962799,0.25154652651116716,0.0025,0.0,0.0,0.0,0.0025,0.0,0.0,0.0,0.0025,0.01,-0.05,-0.01,0.02,0.0,0.0,0.0,0.02,0.0,0.0,0.0,0.02,-2.245803828125,0.10533789062499999,9.5807684375,0.04,0.0,0.0,0.0,0.04,0.0,0.0,0.0,0.04
1614455813.9211886,115,1614455813,897569894,base_imu_link,0.11202851646473669,0.023502457587536187,-0.9612058169041785,0.2509594061509295,0.0025,0.0,0.0,0.0,0.0025,0.0,0.0,0.0,0.0025,0.01,-0.05,-0.01,0.02,0.0,0.0,0.0,0.02,0.0,0.0,0.0,0.02,-2.23622765625,0.11031749999999999,9.576171875,0.04,0.0,0.0,0.0,0.04,0.0,0.0,0.0,0.04
1614455813.9411592,116,1614455813,917557954,base_imu_link,0.11203876068176752,0.023453573690108278,-0.9613152270988486,0.2505399771173157,0.0025,0.0,0.0,0.0,0.0025,0.0,0.0,0.0,0.0025,0.01,-0.05,-0.01,0.02,0.0,0.0,0.0,0.02,0.0,0.0,0.0,0.02,-2.245803828125,0.10074132812499999,9.5807684375,0.04,0.0,0.0,0.0,0.04,0.0,0.0,0.0,0.04
1614455813.9612648,117,1614455813,937747955,base_imu_link,0.11203671354474688,0.023463350827110062,-0.9612933597009166,0.2506238667425361,0.0025,0.0,0.0,0.0,0.0025,0.0,0.0,0.0,0.0025,0.01,-0.05,-0.01,0.02,0.0,0.0,0.0,0.02,0.0,0.0,0.0,0.02,-2.245803828125,0.10533789062499999,9.585748046874999,0.04,0.0,0.0,0.0,0.04,0.0,0.0,0.0,0.04
1614455813.9812672,118,1614455813,957648038,base_imu_link,0.11203330146836882,0.023459255903940907,-0.9614878591731005,0.24987856918363155,0.0025,0.0,0.0,0.0,0.0025,0.0,0.0,0.0,0.0025,0.01,-0.05,-0.01,0.02,0.0,0.0,0.0,0.02,0.0,0.0,0.0,0.02,-2.250400390625,0.11989367187499998,9.5807684375,0.04,0.0,0.0,0.0,0.04,0.0,0.0,0.0,0.04
1614455814.0013473,119,1614455813,977792978,base_imu_link,0.1121451054624266,0.02336790605787773,-0.9615457501631546,0.24961407538531877,0.0025,0.0,0.0,0.0,0.0025,0.0,0.0,0.0,0.0025,0.01,-0.05,-0.01,0.02,0.0,0.0,0.0,0.02,0.0,0.0,0.0,0.02,-2.245803828125,0.1149140625,9.5807684375,0.04,0.0,0.0,0.0,0.04,0.0,0.0,0.0,0.04
1614455814.0214531,120,1614455813,997829914,base_imu_link,0.11216282244057196,0.0233035717330948,-0.9615042069248537,0.24977210587344056,0.0025,0.0,0.0,0.0,0.0025,0.0,0.0,0.0,0.0025,0.01,-0.05,-0.01,0.02,0.0,0.0,0.0,0.02,0.0,0.0,0.0,0.02,-2.250400390625,0.1149140625,9.585748046874999,0.04,0.0,0.0,0.0,0.04,0.0,0.0,0.0,0.04
1614455814.0415692,121,1614455814,17720937,base_imu_link,0.1122426273185853,0.023345070063690965,-0.9614510593584127,0.2499369135900669,0.0025,0.0,0.0,0.0,0.0025,0.0,0.0,0.0,0.0025,0.01,-0.05,-0.01,0.02,0.0,0.0,0.0,0.02,0.0,0.0,0.0,0.02,-2.250400390625,0.11989367187499998,9.585748046874999,0.04,0.0,0.0,0.0,0.04,0.0,0.0,0.0,0.04
1614455814.0640182,122,1614455814,37889957,base_imu_link,0.11227052391360226,0.023231775984040755,-0.9615184907563218,0.24967540122823015,0.0025,0.0,0.0,0.0,0.0025,0.0,0.0,0.0,0.0025,0.01,-0.05,-0.01,0.02,0.0,0.0,0.0,0.02,0.0,0.0,0.0,0.02,-2.245803828125,0.11031749999999999,9.5807684375,0.04,0.0,0.0,0.0,0.04,0.0,0.0,0.0,0.04
1614455814.0818474,123,1614455814,57894945,base_imu_link,0.11225427771599471,0.023310149928040456,-0.9613439501417582,0.25034660686862387,0.0025,0.0,0.0,0.0,0.0025,0.0,0.0,0.0,0.0025,0.01,-0.05,-0.01,0.02,0.0,0.0,0.0,0.02,0.0,0.0,0.0,0.02,-2.245803828125,0.11031749999999999,9.5807684375,0.04,0.0,0.0,0.0,0.04,0.0,0.0,0.0,0.04
1614455814.1013978,124,1614455814,77862977,base_imu_link,0.11225631148288641,0.023300353805566436,-0.9613657933440094,0.25026271282961043,0.0025,0.0,0.0,0.0,0.0025,0.0,0.0,0.0,0.0025,0.01,-0.05,-0.01,0.02,0.0,0.0,0.0,0.02,0.0,0.0,0.0,0.02,-2.250400390625,0.1149140625,9.585748046874999,0.04,0.0,0.0,0.0,0.04,0.0,0.0,0.0,0.04
1614455814.1216195,125,1614455814,97980022,base_imu_link,0.11225631148288641,0.023300353805566436,-0.9613657933440094,0.25026271282961043,0.0025,0.0,0.0,0.0,0.0025,0.0,0.0,0.0,0.0025,0.01,-0.05,-0.01,0.02,0.0,0.0,0.0,0.02,0.0,0.0,0.0,0.02,-2.250400390625,0.11031749999999999,9.576171875,0.04,0.0,0.0,0.0,0.04,0.0,0.0,0.0,0.04
1614455814.14158,126,1614455814,118026018,base_imu_link,0.11233610431334433,0.023341913021016437,-0.9613125563221736,0.2504274821611013,0.0025,0.0,0.0,0.0,0.0025,0.0,0.0,0.0,0.0025,0.01,-0.05,-0.01,0.02,0.0,0.0,0.0,0.02,0.0,0.0,0.0,0.02,-2.245803828125,0.10533789062499999,9.585748046874999,0.04,0.0,0.0,0.0,0.04,0.0,0.0,0.0,0.04
1614455814.16211,127,1614455814,138052940,base_imu_link,0.11224001741239506,0.023378717810706513,-0.9611908427458434,0.25093381172398443,0.0025,0.0,0.0,0.0,0.0025,0.0,0.0,0.0,0.0025,0.01,-0.05,-0.01,0.02,0.0,0.0,0.0,0.02,0.0,0.0,0.0,0.02,-2.24082421875,0.10533789062499999,9.576171875,0.04,0.0,0.0,0.0,0.04,0.0,0.0,0.0,0.04
1614455814.181919,128,1614455814,158050060,base_imu_link,0.11221811887894872,0.023462597446310157,-0.9611887989078991,0.2509436055577685,0.0025,0.0,0.0,0.0,0.0025,0.0,0.0,0.0,0.0025,0.01,-0.05,-0.01,0.02,0.0,0.0,0.0,0.02,0.0,0.0,0.0,0.02,-2.245803828125,0.10533789062499999,9.5807684375,0.04,0.0,0.0,0.0,0.04,0.0,0.0,0.0,0.04
1614455814.2020364,129,1614455814,178031921,base_imu_link,0.11220787070748797,0.02351155960265356,-0.9610792126091385,0.25136297938825614,0.0025,0.0,0.0,0.0,0.0025,0.0,0.0,0.0,0.0025,0.01,-0.05,-0.01,0.02,0.0,0.0,0.0,0.02,0.0,0.0,0.0,0.02,-2.250400390625,0.10533789062499999,9.576171875,0.04,0.0,0.0,0.0,0.04,0.0,0.0,0.0,0.04
1614455814.2217443,130,1614455814,198082923,base_imu_link,0.11228143190279063,0.023582600669121476,-0.9609599023326105,0.2517792825163332,0.0025,0.0,0.0,0.0,0.0025,0.0,0.0,0.0,0.0025,0.01,-0.05,-0.01,0.02,0.0,0.0,0.0,0.02,0.0,0.0,0.0,0.02,-2.245803828125,0.09576171874999999,9.576171875,0.04,0.0,0.0,0.0,0.04,0.0,0.0,0.0,0.04
1614455814.2417283,131,1614455814,218205928,base_imu_link,0.11226358845463032,0.023646866818371345,-0.9610017715516207,0.2516213573439471,0.0025,0.0,0.0,0.0,0.0025,0.0,0.0,0.0,0.0025,0.01,-0.05,-0.01,0.02,0.0,0.0,0.0,0.02,0.0,0.0,0.0,0.02,-2.245803828125,0.10533789062499999,9.5807684375,0.04,0.0,0.0,0.0,0.04,0.0,0.0,0.0,0.04
1614455814.2615948,132,1614455814,238070011,base_imu_link,0.11227389565969567,0.023597880337694933,-0.9611114705964006,0.2512020172788985,0.0025,0.0,0.0,0.0,0.0025,0.0,0.0,0.0,0.0025,0.01,-0.05,-0.01,0.02,0.0,0.0,0.0,0.02,0.0,0.0,0.0,0.02,-2.23622765625,0.1149140625,9.576171875,0.04,0.0,0.0,0.0,0.04,0.0,0.0,0.0,0.04
1614455814.2818754,133,1614455814,258265018,base_imu_link,0.11218799338471083,0.023585639336675318,-0.9610990899319155,0.2512888996542347,0.0025,0.0,0.0,0.0,0.0025,0.0,0.0,0.0,0.0025,0.01,-0.05,-0.01,0.02,0.0,0.0,0.0,0.02,0.0,0.0,0.0,0.02,-2.245803828125,0.11989367187499998,9.576171875,0.04,0.0,0.0,0.0,0.04,0.0,0.0,0.0,0.04
1614455814.301391,134,1614455814,278074979,base_imu_link,0.11222016594953375,0.023452804478709486,-0.9612106942087048,0.25085972505598153,0.0025,0.0,0.0,0.0,0.0025,0.0,0.0,0.0,0.0025,0.01,-0.05,-0.01,0.02,0.0,0.0,0.0,0.02,0.0,0.0,0.0,0.02,-2.245803828125,0.11031749999999999,9.576171875,0.04,0.0,0.0,0.0,0.04,0.0,0.0,0.0,0.04
1614455814.3218944,135,1614455814,298283100,base_imu_link,0.1122242575268719,0.023433218007772743,-0.961254462850035,0.2506919583218279,0.0025,0.0,0.0,0.0,0.0025,0.0,0.0,0.0,0.0025,0.01,-0.05,-0.01,0.02,0.0,0.0,0.0,0.02,0.0,0.0,0.0,0.02,-2.245803828125,0.11989367187499998,9.5807684375,0.04,0.0,0.0,0.0,0.04,0.0,0.0,0.0,0.04
1614455814.3419783,136,1614455814,318413019,base_imu_link,0.11222776095931496,0.023437483339007432,-0.9610593223573114,0.25143705565190244,0.0025,0.0,0.0,0.0,0.0025,0.0,0.0,0.0,0.0025,0.01,-0.05,-0.01,0.02,0.0,0.0,0.0,0.02,0.0,0.0,0.0,0.02,-2.250400390625,0.11031749999999999,9.571575312499998,0.04,0.0,0.0,0.0,0.04,0.0,0.0,0.0,0.04
1614455814.3617184,137,1614455814,338207006,base_imu_link,0.11227937350511795,0.023592398982690912,-0.9609379267862332,0.2518631411288988,0.0025,0.0,0.0,0.0,0.0025,0.0,0.0,0.0,0.0025,0.01,-0.05,-0.01,0.02,0.0,0.0,0.0,0.02,0.0,0.0,0.0,0.02,-2.24082421875,0.10074132812499999,9.571575312499998,0.04,0.0,0.0,0.0,0.04,0.0,0.0,0.0,0.04
1614455814.382264,138,1614455814,358336925,base_imu_link,0.11228143190279063,0.023582600669121476,-0.9609599023326105,0.2517792825163332,0.0025,0.0,0.0,0.0,0.0025,0.0,0.0,0.0,0.0025,0.01,-0.05,-0.01,0.02,0.0,0.0,0.0,0.02,0.0,0.0,0.0,0.02,-2.23622765625,0.10074132812499999,9.571575312499998,0.04,0.0,0.0,0.0,0.04,0.0,0.0,0.0,0.04
1614455814.4018555,139,1614455814,378345012,base_imu_link,0.11218181483422027,0.023615009276059223,-0.9610332697162304,0.251540506193184,0.0025,0.0,0.0,0.0,0.0025,0.0,0.0,0.0,0.0025,0.01,-0.05,-0.01,0.02,0.0,0.0,0.0,0.02,0.0,0.0,0.0,0.02,-2.245803828125,0.10074132812499999,9.576171875,0.04,0.0,0.0,0.0,0.04,0.0,0.0,0.0,0.04
1614455814.4227343,140,1614455814,398346900,base_imu_link,0.11218799338471083,0.023585639336675318,-0.9610990899319155,0.2512888996542347,0.0025,0.0,0.0,0.0,0.0025,0.0,0.0,0.0,0.0025,0.01,-0.05,-0.01,0.02,0.0,0.0,0.0,0.02,0.0,0.0,0.0,0.02,-2.23622765625,0.09576171874999999,9.576171875,0.04,0.0,0.0,0.0,0.04,0.0,0.0,0.0,0.04
1614455814.4420042,141,1614455814,418262004,base_imu_link,0.11217431924845331,0.023630356180844983,-0.9611846892724122,0.2509631874921278,0.0025,0.0,0.0,0.0,0.0025,0.0,0.0,0.0,0.0025,0.01,-0.05,-0.01,0.02,0.0,0.0,0.0,0.02,0.0,0.0,0.0,0.02,-2.23622765625,0.10074132812499999,9.576171875,0.04,0.0,0.0,0.0,0.04,0.0,0.0,0.0,0.04
1614455814.4625154,142,1614455814,438332080,base_imu_link,0.1120966447098735,0.023579001420437142,-0.9612598992834407,0.2507145368070888,0.0025,0.0,0.0,0.0,0.0025,0.0,0.0,0.0,0.0025,0.01,-0.05,-0.01,0.02,0.0,0.0,0.0,0.02,0.0,0.0,0.0,0.02,-2.24082421875,0.09576171874999999,9.576171875,0.04,0.0,0.0,0.0,0.04,0.0,0.0,0.0,0.04
1614455814.4833632,143,1614455814,458353042,base_imu_link,0.11208095640085854,0.02363354516607221,-0.9613234444976477,0.25047265282726994,0.0025,0.0,0.0,0.0,0.0025,0.0,0.0,0.0,0.0025,0.01,-0.05,-0.01,0.02,0.0,0.0,0.0,0.02,0.0,0.0,0.0,0.02,-2.24082421875,0.10074132812499999,9.571575312499998,0.04,0.0,0.0,0.0,0.04,0.0,0.0,0.0,0.04
1614455814.608181,144,1614455814,478563070,base_imu_link,0.11208301838996859,0.02362376416750489,-0.9613452986995618,0.25038876057723203,0.0025,0.0,0.0,0.0,0.0025,0.0,0.0,0.0,0.0025,0.01,-0.05,-0.01,0.02,0.0,0.0,0.0,0.02,0.0,0.0,0.0,0.02,-2.231248046875,0.10074132812499999,9.571575312499998,0.04,0.0,0.0,0.0,0.04,0.0,0.0,0.0,0.04
1614455814.6082108,145,1614455814,498492956,base_imu_link,0.11206943612803057,0.02366853911073867,-0.9614305804860996,0.2500629533706868,0.0025,0.0,0.0,0.0,0.0025,0.0,0.0,0.0,0.0025,0.01,-0.05,-0.01,0.02,0.0,0.0,0.0,0.02,0.0,0.0,0.0,0.02,-2.23622765625,0.10074132812499999,9.561616093749999,0.04,0.0,0.0,0.0,0.04,0.0,0.0,0.0,0.04
1614455814.6082425,146,1614455814,518476963,base_imu_link,0.11206323587849305,0.023697878009064782,-0.9613650812110374,0.25031464673567194,0.0025,0.0,0.0,0.0,0.0025,0.0,0.0,0.0,0.0025,0.01,-0.05,-0.01,0.02,0.0,0.0,0.0,0.02,0.0,0.0,0.0,0.02,-2.23622765625,0.10074132812499999,9.557019531249999,0.04,0.0,0.0,0.0,0.04,0.0,0.0,0.0,0.04
1614455814.6082666,147,1614455814,538393974,base_imu_link,0.11206530348177021,0.02368809855665978,-0.9613869216241602,0.2502307508527467,0.0025,0.0,0.0,0.0,0.0025,0.0,0.0,0.0,0.0025,0.01,-0.05,-0.01,0.02,0.0,0.0,0.0,0.02,0.0,0.0,0.0,0.02,-2.245803828125,0.10533789062499999,9.566595703125,0.04,0.0,0.0,0.0,0.04,0.0,0.0,0.0,0.04
1614455814.6082895,148,1614455814,558548927,base_imu_link,0.11206323587849305,0.023697878009064782,-0.9613650812110374,0.25031464673567194,0.0025,0.0,0.0,0.0,0.0025,0.0,0.0,0.0,0.0025,0.01,-0.05,-0.01,0.02,0.0,0.0,0.0,0.02,0.0,0.0,0.0,0.02,-2.23622765625,0.10074132812499999,9.571575312499998,0.04,0.0,0.0,0.0,0.04,0.0,0.0,0.0,0.04
1614455814.6100285,149,1614455814,578464031,base_imu_link,0.11205702794826249,0.02372721528316396,-0.9612995160450517,0.25056632294436176,0.0025,0.0,0.0,0.0,0.0025,0.0,0.0,0.0,0.0025,0.01,-0.05,-0.01,0.02,0.0,0.0,0.0,0.02,0.0,0.0,0.0,0.02,-2.24082421875,0.09576171874999999,9.571575312499998,0.04,0.0,0.0,0.0,0.04,0.0,0.0,0.0,0.04
1614455814.6225135,150,1614455814,598617076,base_imu_link,0.11202892391309051,0.023840434321335032,-0.9612318081823683,0.2508277593024743,0.0025,0.0,0.0,0.0,0.0025,0.0,0.0,0.0,0.0025,0.01,-0.05,-0.01,0.02,0.0,0.0,0.0,0.02,0.0,0.0,0.0,0.02,-2.245803828125,0.10074132812499999,9.571575312499998,0.04,0.0,0.0,0.0,0.04,0.0,0.0,0.0,0.04
1614455814.6419997,151,1614455814,618499040,base_imu_link,0.11202476126607343,0.0238599866939227,-0.9611880158396406,0.2509955220805743,0.0025,0.0,0.0,0.0,0.0025,0.0,0.0,0.0,0.0025,0.01,-0.05,-0.01,0.02,0.0,0.0,0.0,0.02,0.0,0.0,0.0,0.02,-2.24082421875,0.10533789062499999,9.571575312499998,0.04,0.0,0.0,0.0,0.04,0.0,0.0,0.0,0.04
1614455814.6621206,152,1614455814,638643980,base_imu_link,0.11205495693143847,0.023736994013243515,-0.9612776463480722,0.2506502111984337,0.0025,0.0,0.0,0.0,0.0025,0.0,0.0,0.0,0.0025,0.01,-0.05,-0.01,0.02,0.0,0.0,0.0,0.02,0.0,0.0,0.0,0.02,-2.24082421875,0.1149140625,9.5807684375,0.04,0.0,0.0,0.0,0.04,0.0,0.0,0.0,0.04
1614455814.6819723,153,1614455814,658565998,base_imu_link,0.11205081233776436,0.023756550931025452,-0.9612338849926363,0.2508179819795066,0.0025,0.0,0.0,0.0,0.0025,0.0,0.0,0.0,0.0025,0.01,-0.05,-0.01,0.02,0.0,0.0,0.0,0.02,0.0,0.0,0.0,0.02,-2.23622765625,0.11031749999999999,9.576171875,0.04,0.0,0.0,0.0,0.04,0.0,0.0,0.0,0.04
1614455814.701873,154,1614455814,678518056,base_imu_link,0.11207269990912244,0.023672667359799386,-0.9612359544826896,0.2508082027464508,0.0025,0.0,0.0,0.0,0.0025,0.0,0.0,0.0,0.0025,0.01,-0.05,-0.01,0.02,0.0,0.0,0.0,0.02,0.0,0.0,0.0,0.02,-2.23622765625,0.1149140625,9.576171875,0.04,0.0,0.0,0.0,0.04,0.0,0.0,0.0,0.04
1614455814.7221534,155,1614455814,698693990,base_imu_link,0.11202510581796431,0.02349836147357716,-0.9614005765224338,0.25021417653055317,0.0025,0.0,0.0,0.0,0.0025,0.0,0.0,0.0,0.0025,0.01,-0.05,-0.01,0.02,0.0,0.0,0.0,0.02,0.0,0.0,0.0,0.02,-2.24082421875,0.1149140625,9.576171875,0.04,0.0,0.0,0.0,0.04,0.0,0.0,0.0,0.04
1614455814.8481708,156,1614455814,718676090,base_imu_link,0.11202920534946893,0.023478809046361737,-0.9614442324914002,0.25004637666551643,0.0025,0.0,0.0,0.0,0.0025,0.0,0.0,0.0,0.0025,0.01,-0.05,-0.01,0.02,0.0,0.0,0.0,0.02,0.0,0.0,0.0,0.02,-2.23622765625,0.1149140625,9.576171875,0.04,0.0,0.0,0.0,0.04,0.0,0.0,0.0,0.04
1614455814.8481994,157,1614455814,738769054,base_imu_link,0.11204489697342339,0.023424241207745784,-0.9613807853669747,0.2502882967963845,0.0025,0.0,0.0,0.0,0.0025,0.0,0.0,0.0,0.0025,0.01,-0.05,-0.01,0.02,0.0,0.0,0.0,0.02,0.0,0.0,0.0,0.02,-2.231248046875,0.10533789062499999,9.566595703125,0.04,0.0,0.0,0.0,0.04,0.0,0.0,0.0,0.04
1614455814.8482127,158,1614455814,758730888,base_imu_link,0.11204694069745473,0.02341446335675408,-0.9614026234805718,0.2502043995431135,0.0025,0.0,0.0,0.0,0.0025,0.0,0.0,0.0,0.0025,0.01,-0.05,-0.01,0.02,0.0,0.0,0.0,0.02,0.0,0.0,0.0,0.02,-2.231248046875,0.076609375,9.59072765625,0.04,0.0,0.0,0.0,0.04,0.0,0.0,0.0,0.04
1614455814.8482215,159,1614455814,778615951,base_imu_link,0.1118314181581832,0.02355789305754025,-0.9613738864829968,0.25039770361566255,0.0025,0.0,0.0,0.0,0.0025,0.0,0.0,0.0,0.0025,0.01,-0.05,-0.02,0.02,0.0,0.0,0.0,0.02,0.0,0.0,0.0,0.02,-2.284108515625,0.01915234375,9.691085937499999,0.04,0.0,0.0,0.0,0.04,0.0,0.0,0.0,0.04
1614455814.8482957,160,1614455814,799422025,base_imu_link,0.11096106336657821,0.023808833915268675,-0.9613833635196529,0.2507245703791159,0.0025,0.0,0.0,0.0,0.0025,0.0,0.0,0.0,0.0025,0.02,-0.14,-0.04,0.02,0.0,0.0,0.0,0.02,0.0,0.0,0.0,0.02,-2.19792296875,-0.65577625,10.931008671874999,0.04,0.0,0.0,0.0,0.04,0.0,0.0,0.0,0.04
1614455814.8498766,161,1614455814,818906068,base_imu_link,0.10710912374968361,0.025170868490110344,-0.9617995009313236,0.25067066640770946,0.0025,0.0,0.0,0.0,0.0025,0.0,0.0,0.0,0.0025,0.07,-0.26,-0.0,0.02,0.0,0.0,0.0,0.02,0.0,0.0,0.0,0.02,0.32558984375,1.04878234375,9.848901249999999,0.04,0.0,0.0,0.0,0.04,0.0,0.0,0.0,0.04
1614455814.8628983,162,1614455814,839468002,base_imu_link,0.09726065819957962,0.017211660565253462,-0.9628479412159828,0.25133237993405094,0.0025,0.0,0.0,0.0,0.0025,0.0,0.0,0.0,0.0025,0.01,0.06,0.02,0.02,0.0,0.0,0.0,0.02,0.0,0.0,0.0,0.02,-0.7086367187499999,1.0870870312499998,9.566595703125,0.04,0.0,0.0,0.0,0.04,0.0,0.0,0.0,0.04
1614455814.882518,163,1614455814,859030008,base_imu_link,0.09181144518573153,0.010995795435936427,-0.9631131244997173,0.2527110215879608,0.0025,0.0,0.0,0.0,0.0025,0.0,0.0,0.0,0.0025,0.01,-0.14,0.02,0.02,0.0,0.0,0.0,0.02,0.0,0.0,0.0,0.02,-1.230729609375,0.22523156249999998,9.74854296875,0.04,0.0,0.0,0.0,0.04,0.0,0.0,0.0,0.04
1614455814.9028993,164,1614455814,879400968,base_imu_link,0.08742329815854775,0.010326889841068786,-0.9631034699020349,0.25432701104670763,0.0025,0.0,0.0,0.0,0.0025,0.0,0.0,0.0,0.0025,-0.02,-0.19,0.04,0.02,0.0,0.0,0.0,0.02,0.0,0.0,0.0,0.02,-1.403100703125,0.335166015625,10.619974609375,0.04,0.0,0.0,0.0,0.04,0.0,0.0,0.0,0.04
1614455814.9228487,165,1614455814,899374961,base_imu_link,0.08404375367127995,0.00960042675837838,-0.9628678719761177,0.25637851000245915,0.0025,0.0,0.0,0.0,0.0025,0.0,0.0,0.0,0.0025,-0.03,-0.2,0.09,0.02,0.0,0.0,0.0,0.02,0.0,0.0,0.0,0.02,1.6042003125,0.31601367187499996,9.686489374999999,0.04,0.0,0.0,0.0,0.04,0.0,0.0,0.0,0.04
1614455814.9433694,166,1614455814,919373989,base_imu_link,0.07050404853367076,0.004783330735807544,-0.9632849155877002,0.2590144210051458,0.0025,0.0,0.0,0.0,0.0025,0.0,0.0,0.0,0.0025,0.07,0.19,0.16,0.02,0.0,0.0,0.0,0.02,0.0,0.0,0.0,0.02,-2.5472617187499997,0.8189542187499999,9.810596562499999,0.04,0.0,0.0,0.0,0.04,0.0,0.0,0.0,0.04
1614455814.9629588,167,1614455814,939367055,base_imu_link,0.07567640200387035,0.003159628224977215,-0.9622527830448099,0.2614052035666975,0.0025,0.0,0.0,0.0,0.0025,0.0,0.0,0.0,0.0025,0.03,-0.15,0.19,0.02,0.0,0.0,0.0,0.02,0.0,0.0,0.0,0.02,-1.556319453125,1.09168359375,9.16937609375,0.04,0.0,0.0,0.0,0.04,0.0,0.0,0.0,0.04
1614455814.9828913,168,1614455814,959461927,base_imu_link,0.0761785484771119,-0.0002945177429372961,-0.9609813012867021,0.2659166797862372,0.0025,0.0,0.0,0.0,0.0025,0.0,0.0,0.0,0.0025,-0.01,-0.17,0.2,0.02,0.0,0.0,0.0,0.02,0.0,0.0,0.0,0.02,-2.020572265625,1.12998828125,10.332689453124999,0.04,0.0,0.0,0.0,0.04,0.0,0.0,0.0,0.04
1614455815.0036106,169,1614455814,979813098,base_imu_link,0.0777083844332675,-0.002552278837639168,-0.959898521035348,0.26935055629357463,0.0025,0.0,0.0,0.0,0.0025,0.0,0.0,0.0,0.0025,-0.05,-0.16,0.24,0.02,0.0,0.0,0.0,0.02,0.0,0.0,0.0,0.02,1.1012597656249998,1.04878234375,9.350940312499999,0.04,0.0,0.0,0.0,0.04,0.0,0.0,0.0,0.04
1614455815.024651,170,1614455814,999908924,base_imu_link,0.06983654256661592,-0.008200566378848154,-0.9592244693604591,0.273759064532214,0.0025,0.0,0.0,0.0,0.0025,0.0,0.0,0.0,0.0025,0.03,0.25,0.27,0.02,0.0,0.0,0.0,0.02,0.0,0.0,0.0,0.02,-4.203939453125,0.17696765625,10.270252812499999,0.04,0.0,0.0,0.0,0.04,0.0,0.0,0.0,0.04
1614455815.043367,171,1614455815,19870996,base_imu_link,0.0759969708995832,-0.004636893630332588,-0.9576099023116468,0.27782410735252455,0.0025,0.0,0.0,0.0,0.0025,0.0,0.0,0.0,0.0025,-0.04,-0.44,0.36,0.02,0.0,0.0,0.0,0.02,0.0,0.0,0.0,0.02,-2.2170753125,2.0876054687499996,8.474912109375,0.04,0.0,0.0,0.0,0.04,0.0,0.0,0.0,0.04
1614455815.1720672,172,1614455815,39809942,base_imu_link,0.08017909991487296,-0.009015554634793286,-0.9557195884495556,0.28300194339488205,0.0025,0.0,0.0,0.0,0.0025,0.0,0.0,0.0,0.0025,-0.19,-0.18,0.35,0.02,0.0,0.0,0.0,0.02,0.0,0.0,0.0,0.02,2.2170753125,0.612875,8.53734875,0.04,0.0,0.0,0.0,0.04,0.0,0.0,0.0,0.04
1614455815.1720965,173,1614455815,59828042,base_imu_link,0.06794735664544493,-0.013090313861765061,-0.9549433719546311,0.28860865677906494,0.0025,0.0,0.0,0.0,0.0025,0.0,0.0,0.0,0.0025,0.01,0.12,0.34,0.02,0.0,0.0,0.0,0.02,0.0,0.0,0.0,0.02,-4.519953125,0.15321875,11.390664921874999,0.04,0.0,0.0,0.0,0.04,0.0,0.0,0.0,0.04
1614455815.1721134,174,1614455815,79504013,base_imu_link,0.07184085839150953,-0.010092300581681493,-0.9532583874144861,0.29331805835726105,0.0025,0.0,0.0,0.0,0.0025,0.0,0.0,0.0,0.0025,-0.03,-0.38,0.38,0.02,0.0,0.0,0.0,0.02,0.0,0.0,0.0,0.02,0.3784503125,1.04878234375,7.182128906249999,0.04,0.0,0.0,0.0,0.04,0.0,0.0,0.0,0.04
1614455815.1721234,175,1614455815,97254037,base_imu_link,0.070178096731531,-0.01010177896382191,-0.9519069435123572,0.2980707293476975,0.0025,0.0,0.0,0.0,0.0025,0.0,0.0,0.0,0.0025,-0.21,0.13,0.3,0.02,0.0,0.0,0.0,0.02,0.0,0.0,0.0,0.02,-3.6822296093749993,-0.55082140625,11.677950078124999,0.04,0.0,0.0,0.0,0.04,0.0,0.0,0.0,0.04
1614455815.172144,176,1614455815,119638919,base_imu_link,0.07322499611160677,-0.0054067407491123695,-0.9502374750052708,0.30275007546577865,0.0025,0.0,0.0,0.0,0.0025,0.0,0.0,0.0,0.0025,-0.03,-0.17,0.39,0.02,0.0,0.0,0.0,0.02,0.0,0.0,0.0,0.02,-0.9576171874999999,1.177869140625,7.842884765625,0.04,0.0,0.0,0.0,0.04,0.0,0.0,0.0,0.04
1614455815.1734645,177,1614455815,139964103,base_imu_link,0.07580179481057109,-0.005840651236412656,-0.9485332789763943,0.3074159940063635,0.0025,0.0,0.0,0.0,0.0025,0.0,0.0,0.0,0.0025,-0.14,0.23,0.36,0.02,0.0,0.0,0.0,0.02,0.0,0.0,0.0,0.02,-3.4857265624999996,-0.23480773437499997,11.01259765625,0.04,0.0,0.0,0.0,0.04,0.0,0.0,0.0,0.04
1614455815.1833951,178,1614455815,159843921,base_imu_link,0.0788641591061956,-0.0013651040442805226,-0.9468874042889334,0.31174159892190645,0.0025,0.0,0.0,0.0,0.0025,0.0,0.0,0.0,0.0025,-0.05,-0.24,0.42,0.02,0.0,0.0,0.0,0.02,0.0,0.0,0.0,0.02,-2.365314453125,0.67033203125,8.52279296875,0.04,0.0,0.0,0.0,0.04,0.0,0.0,0.0,0.04
1614455815.2029867,179,1614455815,179656028,base_imu_link,0.08370250670024837,0.0004899562112324791,-0.9449706064638996,0.3162660323750491,0.0025,0.0,0.0,0.0,0.0025,0.0,0.0,0.0,0.0025,-0.14,0.03,0.38,0.02,0.0,0.0,0.0,0.02,0.0,0.0,0.0,0.02,-0.7948222656249999,0.35929796875,10.390146484374998,0.04,0.0,0.0,0.0,0.04,0.0,0.0,0.0,0.04
1614455815.2240446,180,1614455815,200104951,base_imu_link,0.08111148699093419,0.0017476919993979628,-0.9435833909962131,0.321042452779819,0.0025,0.0,0.0,0.0,0.0025,0.0,0.0,0.0,0.0025,-0.14,0.15,0.41,0.02,0.0,0.0,0.0,0.02,0.0,0.0,0.0,0.02,-1.302359375,0.23940429687499998,9.054462031249999,0.04,0.0,0.0,0.0,0.04,0.0,0.0,0.0,0.04
1614455815.2431414,181,1614455815,219423055,base_imu_link,0.08087755966362126,0.0025334085712310182,-0.9419794447077623,0.32577158858918986,0.0025,0.0,0.0,0.0,0.0025,0.0,0.0,0.0,0.0025,-0.01,0.01,0.42,0.02,0.0,0.0,0.0,0.02,0.0,0.0,0.0,0.02,-5.49212609375,-0.407178828125,10.605418828125,0.04,0.0,0.0,0.0,0.04,0.0,0.0,0.0,0.04
1614455815.2644484,182,1614455815,240212917,base_imu_link,0.08617802101121241,0.007217440461634007,-0.9399245118847854,0.33024713353172636,0.0025,0.0,0.0,0.0,0.0025,0.0,0.0,0.0,0.0025,-0.03,-0.49,0.46,0.02,0.0,0.0,0.0,0.02,0.0,0.0,0.0,0.02,0.75153796875,1.000901484375,8.015255859375,0.04,0.0,0.0,0.0,0.04,0.0,0.0,0.0,0.04
1614455815.2834811,183,1614455815,260103940,base_imu_link,0.08246656812441028,0.004754726439762647,-0.9385571923419063,0.33509260573988053,0.0025,0.0,0.0,0.0,0.0025,0.0,0.0,0.0,0.0025,-0.14,0.24,0.38,0.02,0.0,0.0,0.0,0.02,0.0,0.0,0.0,0.02,-3.2991827343749995,-0.090782109375,10.9214325,0.04,0.0,0.0,0.0,0.04,0.0,0.0,0.0,0.04
1614455815.3033128,184,1614455815,279992103,base_imu_link,0.0869043749593135,0.008916399910210239,-0.9365427604037702,0.3394934246209466,0.0025,0.0,0.0,0.0,0.0025,0.0,0.0,0.0,0.0025,-0.05,-0.01,0.45,0.02,0.0,0.0,0.0,0.02,0.0,0.0,0.0,0.02,-1.5850479687499999,0.598702265625,9.336767578124999,0.04,0.0,0.0,0.0,0.04,0.0,0.0,0.0,0.04
1614455815.3209088,185,1614455815,297512054,base_imu_link,0.08782815680308531,0.008225304212677753,-0.9348170417008973,0.34399950259958895,0.0025,0.0,0.0,0.0,0.0025,0.0,0.0,0.0,0.0025,-0.03,0.03,0.43,0.02,0.0,0.0,0.0,0.02,0.0,0.0,0.0,0.02,-4.4866280468749995,1.120412109375,9.79144421875,0.04,0.0,0.0,0.0,0.04,0.0,0.0,0.0,0.04
1614455815.3436365,186,1614455815,320365905,base_imu_link,0.09731373479186774,0.009462443946477272,-0.9324794008851386,0.3477393651865007,0.0025,0.0,0.0,0.0,0.0025,0.0,0.0,0.0,0.0025,-0.09,-0.23,0.42,0.02,0.0,0.0,0.0,0.02,0.0,0.0,0.0,0.02,-0.08618554687499999,0.43590734375,9.164396484374999,0.04,0.0,0.0,0.0,0.04,0.0,0.0,0.0,0.04
1614455815.3608937,187,1614455815,337528944,base_imu_link,0.09186478243280806,0.0077543418401485355,-0.9312782299452728,0.3524508339629776,0.0025,0.0,0.0,0.0,0.0025,0.0,0.0,0.0,0.0025,-0.05,0.14,0.43,0.02,0.0,0.0,0.0,0.02,0.0,0.0,0.0,0.02,-3.8450245312499995,0.124490234375,10.275232421875,0.04,0.0,0.0,0.0,0.04,0.0,0.0,0.0,0.04
1614455815.38409,188,1614455815,360436916,base_imu_link,0.0985559299100562,0.01245611186786106,-0.9290761850953385,0.356299054510943,0.0025,0.0,0.0,0.0,0.0025,0.0,0.0,0.0,0.0025,-0.08,-0.02,0.46,0.02,0.0,0.0,0.0,0.02,0.0,0.0,0.0,0.02,-0.9434444531249999,0.464635859375,9.451681640624999,0.04,0.0,0.0,0.0,0.04,0.0,0.0,0.0,0.04
1614455815.40427,189,1614455815,379785060,base_imu_link,0.0951970951024866,0.01133972146522819,-0.9276807939736204,0.3608562986752654,0.0025,0.0,0.0,0.0,0.0025,0.0,0.0,0.0,0.0025,-0.06,0.05,0.44,0.02,0.0,0.0,0.0,0.02,0.0,0.0,0.0,0.02,-4.11775390625,1.07253125,9.0016015625,0.04,0.0,0.0,0.0,0.04,0.0,0.0,0.0,0.04
1614455815.4234672,190,1614455815,400146961,base_imu_link,0.10485824567443133,0.012427730895132431,-0.9254712454423886,0.3638038945341193,0.0025,0.0,0.0,0.0,0.0025,0.0,0.0,0.0,0.0025,-0.11,-0.29,0.42,0.02,0.0,0.0,0.0,0.02,0.0,0.0,0.0,0.02,-0.8381065624999999,0.1149140625,9.547443359374999,0.04,0.0,0.0,0.0,0.04,0.0,0.0,0.0,0.04
1614455815.4410286,191,1614455815,417709112,base_imu_link,0.10032247353783087,0.013068240632853383,-0.9244156733402588,0.36772310951705117,0.0025,0.0,0.0,0.0,0.0025,0.0,0.0,0.0,0.0025,-0.07,0.12,0.44,0.02,0.0,0.0,0.0,0.02,0.0,0.0,0.0,0.02,-1.09168359375,-0.10533789062499999,9.284290156249998,0.04,0.0,0.0,0.0,0.04,0.0,0.0,0.0,0.04
1614455815.4612982,192,1614455815,437947988,base_imu_link,0.09839029269329097,0.015078394191057387,-0.9232187158012181,0.3711592584413023,0.0025,0.0,0.0,0.0,0.0025,0.0,0.0,0.0,0.0025,-0.03,0.21,0.44,0.02,0.0,0.0,0.0,0.02,0.0,0.0,0.0,0.02,-3.2034210156249996,-0.047880859374999994,9.8780128125,0.04,0.0,0.0,0.0,0.04,0.0,0.0,0.0,0.04
1614455815.4838524,193,1614455815,460360050,base_imu_link,0.10100207908115154,0.019426411464597098,-0.921860464642729,0.373623444510091,0.0025,0.0,0.0,0.0,0.0025,0.0,0.0,0.0,0.0025,-0.12,-0.2,0.4,0.02,0.0,0.0,0.0,0.02,0.0,0.0,0.0,0.02,-3.782587890625,1.0342265625,9.188528437499999,0.04,0.0,0.0,0.0,0.04,0.0,0.0,0.0,0.04
1614455815.503836,194,1614455815,480426073,base_imu_link,0.10840407578486427,0.019658682501194704,-0.9197728933321616,0.37666950665926024,0.0025,0.0,0.0,0.0,0.0025,0.0,0.0,0.0,0.0025,-0.12,-0.27,0.41,0.02,0.0,0.0,0.0,0.02,0.0,0.0,0.0,0.02,-0.388026484375,0.9097363281249999,9.810596562499999,0.04,0.0,0.0,0.0,0.04,0.0,0.0,0.0,0.04
1614455815.5248563,195,1614455815,501221895,base_imu_link,0.10253464490365119,0.015025706191369434,-0.9189315332557797,0.3805597350431525,0.0025,0.0,0.0,0.0,0.0025,0.0,0.0,0.0,0.0025,-0.08,0.14,0.44,0.02,0.0,0.0,0.0,0.02,0.0,0.0,0.0,0.02,-2.08300890625,0.139046015625,9.322594843749998,0.04,0.0,0.0,0.0,0.04,0.0,0.0,0.0,0.04
1614455815.5443177,196,1614455815,520864009,base_imu_link,0.1040440852745312,0.01796120645476811,-0.9172625638014148,0.3840333480708812,0.0025,0.0,0.0,0.0,0.0025,0.0,0.0,0.0,0.0025,-0.08,0.13,0.41,0.02,0.0,0.0,0.0,0.02,0.0,0.0,0.0,0.02,-3.8208925781249996,0.05286046874999999,9.308039062499999,0.04,0.0,0.0,0.0,0.04,0.0,0.0,0.0,0.04
1614455815.5611727,197,1614455815,537906885,base_imu_link,0.11088054997892058,0.024865012768160832,-0.9156379193546603,0.3856091744451625,0.0025,0.0,0.0,0.0,0.0025,0.0,0.0,0.0,0.0025,-0.21,-0.04,0.31,0.02,0.0,0.0,0.0,0.02,0.0,0.0,0.0,0.02,-2.188346796875,-1.2020010937499999,8.479891718749998,0.04,0.0,0.0,0.0,0.04,0.0,0.0,0.0,0.04
1614455815.583929,198,1614455815,560033082,base_imu_link,0.1097680160483118,0.03134829829212097,-0.9147779289354163,0.3874914290402256,0.0025,0.0,0.0,0.0,0.0025,0.0,0.0,0.0,0.0025,-0.03,0.01,0.33,0.02,0.0,0.0,0.0,0.02,0.0,0.0,0.0,0.02,-4.467475703124999,-0.5554179687499999,10.083708984374999,0.04,0.0,0.0,0.0,0.04,0.0,0.0,0.0,0.04
1614455815.6039433,199,1614455815,580656051,base_imu_link,0.11474570208876464,0.03676415311699467,-0.913182213219573,0.3893328477757163,0.0025,0.0,0.0,0.0,0.0025,0.0,0.0,0.0,0.0025,-0.03,-0.19,0.38,0.02,0.0,0.0,0.0,0.02,0.0,0.0,0.0,0.02,-2.2982812499999996,1.1253917187499998,9.126091796874999,0.04,0.0,0.0,0.0,0.04,0.0,0.0,0.0,0.04
1614455815.6240628,200,1614455815,600745916,base_imu_link,0.11702700555412016,0.0330884146033748,-0.9119874772945453,0.3917763112389546,0.0025,0.0,0.0,0.0,0.0025,0.0,0.0,0.0,0.0025,-0.08,-0.0,0.37,0.02,0.0,0.0,0.0,0.02,0.0,0.0,0.0,0.02,-1.613776484375,-0.19650304687499998,10.863975468749999,0.04,0.0,0.0,0.0,0.04,0.0,0.0,0.0,0.04
1614455815.6436925,201,1614455815,620440959,base_imu_link,0.11157195449605446,0.03246202883870994,-0.9117653300912778,0.3939313372875385,0.0025,0.0,0.0,0.0,0.0025,0.0,0.0,0.0,0.0025,0.01,-0.16,0.36,0.02,0.0,0.0,0.0,0.02,0.0,0.0,0.0,0.02,-1.441405390625,2.2170753125,7.732950312499999,0.04,0.0,0.0,0.0,0.04,0.0,0.0,0.0,0.04
1614455815.6637514,202,1614455815,639956951,base_imu_link,0.11365196078793677,0.02762195124105082,-0.9103942238731991,0.3968659934499423,0.0025,0.0,0.0,0.0,0.0025,0.0,0.0,0.0,0.0025,-0.22,0.1,0.35,0.02,0.0,0.0,0.0,0.02,0.0,0.0,0.0,0.02,-3.001938359375,-0.41177539062499996,10.911856328125,0.04,0.0,0.0,0.0,0.04,0.0,0.0,0.0,0.04
1614455815.6840637,203,1614455815,660582065,base_imu_link,0.11071600898250744,0.029703668713685603,-0.9093877602930637,0.3998419173237073,0.0025,0.0,0.0,0.0,0.0025,0.0,0.0,0.0,0.0025,-0.05,-0.39,0.43,0.02,0.0,0.0,0.0,0.02,0.0,0.0,0.0,0.02,-1.7574190625,1.1587167968749998,8.187626953125,0.04,0.0,0.0,0.0,0.04,0.0,0.0,0.0,0.04
1614455815.7040093,204,1614455815,680649042,base_imu_link,0.11284738504276202,0.029120184435774868,-0.907810202517591,0.4028624067251839,0.0025,0.0,0.0,0.0,0.0025,0.0,0.0,0.0,0.0025,-0.25,0.19,0.41,0.02,0.0,0.0,0.0,0.02,0.0,0.0,0.0,0.02,-1.43182921875,0.10533789062499999,10.758637578124999,0.04,0.0,0.0,0.0,0.04,0.0,0.0,0.0,0.04
1614455815.723801,205,1614455815,700390100,base_imu_link,0.10683604309037616,0.027619340339727648,-0.9072074033444134,0.4059531490862909,0.0025,0.0,0.0,0.0,0.0025,0.0,0.0,0.0,0.0025,-0.03,-0.21,0.44,0.02,0.0,0.0,0.0,0.02,0.0,0.0,0.0,0.02,-3.0689715625,0.014555781249999998,9.346343749999999,0.04,0.0,0.0,0.0,0.04,0.0,0.0,0.0,0.04
1614455815.7439284,206,1614455815,720700979,base_imu_link,0.11082575595955331,0.03193755376325686,-0.9058891446556013,0.407507671180256,0.0025,0.0,0.0,0.0,0.0025,0.0,0.0,0.0,0.0025,-0.12,-0.0,0.41,0.02,0.0,0.0,0.0,0.02,0.0,0.0,0.0,0.02,0.34474218749999996,0.8859874218749999,10.20819921875,0.04,0.0,0.0,0.0,0.04,0.0,0.0,0.0,0.04
1614455815.764093,207,1614455815,740869998,base_imu_link,0.10215013929570248,0.0239099232671935,-0.9056086467971373,0.4109338674987543,0.0025,0.0,0.0,0.0,0.0025,0.0,0.0,0.0,0.0025,0.06,0.1,0.42,0.02,0.0,0.0,0.0,0.02,0.0,0.0,0.0,0.02,-1.829048828125,0.8810078124999999,8.168474609375,0.04,0.0,0.0,0.0,0.04,0.0,0.0,0.0,0.04
1614455815.7828717,208,1614455815,758153915,base_imu_link,0.10552302251795967,0.024867109720542905,-0.9037185320617214,0.41417307177196855,0.0025,0.0,0.0,0.0,0.0025,0.0,0.0,0.0,0.0025,-0.2,0.27,0.4,0.02,0.0,0.0,0.0,0.02,0.0,0.0,0.0,0.02,-3.12183203125,-0.10074132812499999,10.734888671875,0.04,0.0,0.0,0.0,0.04,0.0,0.0,0.0,0.04
1614455815.8041375,209,1614455815,780709981,base_imu_link,0.10371900614624968,0.026851386715450728,-0.9025392445285121,0.4170662811609134,0.0025,0.0,0.0,0.0,0.0025,0.0,0.0,0.0,0.0025,-0.09,-0.41,0.43,0.02,0.0,0.0,0.0,0.02,0.0,0.0,0.0,0.02,-2.08300890625,0.65577625,8.06773328125,0.04,0.0,0.0,0.0,0.04,0.0,0.0,0.0,0.04
1614455815.8216267,210,1614455815,798346042,base_imu_link,0.10533144686211343,0.028738478895824485,-0.9003567207044785,0.421232906614578,0.0025,0.0,0.0,0.0,0.0025,0.0,0.0,0.0,0.0025,-0.27,0.06,0.42,0.02,0.0,0.0,0.0,0.02,0.0,0.0,0.0,0.02,0.22025195312499998,1.07253125,9.935469843749999,0.04,0.0,0.0,0.0,0.04,0.0,0.0,0.0,0.04
1614455815.8437188,211,1614455815,820527076,base_imu_link,0.09619896937342398,0.020179401119108598,-0.8999809200673233,0.42470330064262424,0.0025,0.0,0.0,0.0,0.0025,0.0,0.0,0.0,0.0025,-0.01,-0.05,0.41,0.02,0.0,0.0,0.0,0.02,0.0,0.0,0.0,0.02,-1.7428632812499998,0.311417109375,8.32667296875,0.04,0.0,0.0,0.0,0.04,0.0,0.0,0.0,0.04
1614455815.8637066,212,1614455815,840471982,base_imu_link,0.0994154778970711,0.023476350412125264,-0.8983897701864214,0.427154825034452,0.0025,0.0,0.0,0.0,0.0025,0.0,0.0,0.0,0.0025,-0.17,0.34,0.34,0.02,0.0,0.0,0.0,0.02,0.0,0.0,0.0,0.02,-3.7971436718749993,-0.775669921875,10.71075671875,0.04,0.0,0.0,0.0,0.04,0.0,0.0,0.0,0.04
1614455815.8841174,213,1614455815,860837936,base_imu_link,0.10148931068075771,0.029950867065614274,-0.896495079313838,0.4302318423195082,0.0025,0.0,0.0,0.0,0.0025,0.0,0.0,0.0,0.0025,-0.09,-0.14,0.42,0.02,0.0,0.0,0.0,0.02,0.0,0.0,0.0,0.02,-5.257318359375,0.10533789062499999,10.457179687499998,0.04,0.0,0.0,0.0,0.04,0.0,0.0,0.0,0.04
1614455815.9043005,214,1614455815,880964040,base_imu_link,0.1058284440646676,0.03388181049040845,-0.8942614239171762,0.433530701379231,0.0025,0.0,0.0,0.0,0.0025,0.0,0.0,0.0,0.0025,-0.13,-0.42,0.47,0.02,0.0,0.0,0.0,0.02,0.0,0.0,0.0,0.02,0.10074132812499999,0.890583984375,9.25058203125,0.04,0.0,0.0,0.0,0.04,0.0,0.0,0.0,0.04
1614455815.924325,215,1614455815,901022911,base_imu_link,0.10040884111079476,0.028735290317162696,-0.8930827544209385,0.43760203549924837,0.0025,0.0,0.0,0.0,0.0025,0.0,0.0,0.0,0.0025,-0.1,0.25,0.43,0.02,0.0,0.0,0.0,0.02,0.0,0.0,0.0,0.02,-1.3360675,0.340145625,9.140264531249999,0.04,0.0,0.0,0.0,0.04,0.0,0.0,0.0,0.04
1614455815.950783,216,1614455815,921228885,base_imu_link,0.09805321791355115,0.027970037014364943,-0.8917204920980673,0.4409510261453005,0.0025,0.0,0.0,0.0,0.0025,0.0,0.0,0.0,0.0025,-0.08,-0.02,0.4,0.02,0.0,0.0,0.0,0.02,0.0,0.0,0.0,0.02,-5.42470984375,0.139046015625,10.198623046875,0.04,0.0,0.0,0.0,0.04,0.0,0.0,0.0,0.04
1614455815.962767,217,1614455815,938397884,base_imu_link,0.1024178536070407,0.0318019321665932,-0.8897498030898867,0.44367162211990313,0.0025,0.0,0.0,0.0,0.0025,0.0,0.0,0.0,0.0025,-0.12,-0.58,0.44,0.02,0.0,0.0,0.0,0.02,0.0,0.0,0.0,0.02,0.9480410156249999,0.995921875,8.781349609374999,0.04,0.0,0.0,0.0,0.04,0.0,0.0,0.0,0.04
1614455815.9872744,218,1614455815,960481882,base_imu_link,0.09405630912586163,0.02521235543861073,-0.8888534675837455,0.4477245369769329,0.0025,0.0,0.0,0.0,0.0025,0.0,0.0,0.0,0.0025,-0.13,0.1,0.46,0.02,0.0,0.0,0.0,0.02,0.0,0.0,0.0,0.02,-1.8960820312499997,-0.464635859375,10.112437499999999,0.04,0.0,0.0,0.0,0.04,0.0,0.0,0.0,0.04
1614455816.0033638,219,1614455815,978461027,base_imu_link,0.09456096623083746,0.03144685533774932,-0.8871238530806412,0.4506446363269108,0.0025,0.0,0.0,0.0,0.0025,0.0,0.0,0.0,0.0025,-0.18,0.32,0.48,0.02,0.0,0.0,0.0,0.02,0.0,0.0,0.0,0.02,-2.49440125,-0.253960078125,10.399722656249999,0.04,0.0,0.0,0.0,0.04,0.0,0.0,0.0,0.04
1614455816.021803,220,1614455815,998452901,base_imu_link,0.09393336229124377,0.034109039935915575,-0.8855762976015777,0.45361626731147303,0.0025,0.0,0.0,0.0,0.0025,0.0,0.0,0.0,0.0025,-0.08,-0.15,0.46,0.02,0.0,0.0,0.0,0.02,0.0,0.0,0.0,0.02,-4.92215234375,0.44050390624999997,9.911337890625,0.04,0.0,0.0,0.0,0.04,0.0,0.0,0.0,0.04
1614455816.0442858,221,1614455816,21166086,base_imu_link,0.10152521461565708,0.037692819665338675,-0.8828192573581282,0.45705802802331785,0.0025,0.0,0.0,0.0,0.0025,0.0,0.0,0.0,0.0025,-0.09,-0.31,0.48,0.02,0.0,0.0,0.0,0.02,0.0,0.0,0.0,0.02,0.28268859375,0.8668350781249999,9.614476562499998,0.04,0.0,0.0,0.0,0.04,0.0,0.0,0.0,0.04
1614455816.0647116,222,1614455816,41498899,base_imu_link,0.09540192740837683,0.03117840069312715,-0.8816158907325833,0.4611722029619515,0.0025,0.0,0.0,0.0,0.0025,0.0,0.0,0.0,0.0025,-0.07,0.3,0.47,0.02,0.0,0.0,0.0,0.02,0.0,0.0,0.0,0.02,-1.560916015625,0.090782109375,8.757217656249999,0.04,0.0,0.0,0.0,0.04,0.0,0.0,0.0,0.04
1614455816.0838475,223,1614455816,60554027,base_imu_link,0.0960239262873291,0.03270602030562156,-0.8802012404908613,0.4636329346093552,0.0025,0.0,0.0,0.0,0.0025,0.0,0.0,0.0,0.0025,-0.08,0.17,0.46,0.02,0.0,0.0,0.0,0.02,0.0,0.0,0.0,0.02,-4.893423828125,-0.05745703125,10.260676640624999,0.04,0.0,0.0,0.0,0.04,0.0,0.0,0.0,0.04
1614455816.1085732,224,1614455816,81439018,base_imu_link,0.0992999119770837,0.03589779791946001,-0.8783449596765971,0.46621991312747896,0.0025,0.0,0.0,0.0,0.0025,0.0,0.0,0.0,0.0025,-0.03,-0.58,0.44,0.02,0.0,0.0,0.0,0.02,0.0,0.0,0.0,0.02,-0.7806495312499999,0.8285303906249999,8.297561406249999,0.04,0.0,0.0,0.0,0.04,0.0,0.0,0.0,0.04
1614455816.123593,225,1614455816,100537061,base_imu_link,0.0980747690619979,0.034107003444735565,-0.8763994320992179,0.47025746927148837,0.0025,0.0,0.0,0.0,0.0025,0.0,0.0,0.0,0.0025,-0.16,0.12,0.44,0.02,0.0,0.0,0.0,0.02,0.0,0.0,0.0,0.02,0.8093780468749999,0.40219921875,9.772291874999999,0.04,0.0,0.0,0.0,0.04,0.0,0.0,0.0,0.04
1614455816.1454315,226,1614455816,120903015,base_imu_link,0.08878593310436216,0.02952151860656533,-0.8752343995213742,0.47456325596953836,0.0025,0.0,0.0,0.0,0.0025,0.0,0.0,0.0,0.0025,-0.12,0.38,0.44,0.02,0.0,0.0,0.0,0.02,0.0,0.0,0.0,0.02,-3.9312100781249995,-0.6940809375,10.782769531249999,0.04,0.0,0.0,0.0,0.04,0.0,0.0,0.0,0.04
1614455816.1644673,227,1614455816,141395092,base_imu_link,0.09069013745139261,0.03304794927378764,-0.8731422068279976,0.4778135815078709,0.0025,0.0,0.0,0.0,0.0025,0.0,0.0,0.0,0.0025,0.09,-0.35,0.5,0.02,0.0,0.0,0.0,0.02,0.0,0.0,0.0,0.02,-4.534508906249999,0.5841464843749999,9.150223749999999,0.04,0.0,0.0,0.0,0.04,0.0,0.0,0.0,0.04
1614455816.181751,228,1614455816,158664941,base_imu_link,0.09954824702748835,0.03656332870617274,-0.8699783067103669,0.48155063634164313,0.0025,0.0,0.0,0.0,0.0025,0.0,0.0,0.0,0.0025,-0.08,-0.38,0.5,0.02,0.0,0.0,0.0,0.02,0.0,0.0,0.0,0.02,0.9193125,1.2977628125,9.25517859375,0.04,0.0,0.0,0.0,0.04,0.0,0.0,0.0,0.04
1614455816.201818,229,1614455816,178725004,base_imu_link,0.09358622113986298,0.028172394643201874,-0.8686364506293448,0.4857145787711978,0.0025,0.0,0.0,0.0,0.0025,0.0,0.0,0.0,0.0025,-0.09,0.39,0.47,0.02,0.0,0.0,0.0,0.02,0.0,0.0,0.0,0.02,-1.0966632031249999,0.5745703124999999,9.116515625,0.04,0.0,0.0,0.0,0.04,0.0,0.0,0.0,0.04
1614455816.2220447,230,1614455816,198865890,base_imu_link,0.09308374848488749,0.026236419694516525,-0.8667930728146486,0.48920019927444297,0.0025,0.0,0.0,0.0,0.0025,0.0,0.0,0.0,0.0025,0.01,0.13,0.48,0.02,0.0,0.0,0.0,0.02,0.0,0.0,0.0,0.02,-5.711995,-0.28728515624999995,10.332689453124999,0.04,0.0,0.0,0.0,0.04,0.0,0.0,0.0,0.04
1614455816.2444935,231,1614455816,221396923,base_imu_link,0.09786729901983673,0.032238790109658105,-0.8641866763556775,0.49250790917928894,0.0025,0.0,0.0,0.0,0.0025,0.0,0.0,0.0,0.0025,-0.1,-0.46,0.53,0.02,0.0,0.0,0.0,0.02,0.0,0.0,0.0,0.02,-0.560397578125,1.27861046875,9.241005859374999,0.04,0.0,0.0,0.0,0.04,0.0,0.0,0.0,0.04
1614455816.2649252,232,1614455816,241661071,base_imu_link,0.09502494521684694,0.026791770001201618,-0.8620160181261173,0.4971728525781866,0.0025,0.0,0.0,0.0,0.0025,0.0,0.0,0.0,0.0025,-0.14,0.07,0.51,0.02,0.0,0.0,0.0,0.02,0.0,0.0,0.0,0.02,-0.37347070312499997,1.197021484375,8.321693359374999,0.04,0.0,0.0,0.0,0.04,0.0,0.0,0.0,0.04
1614455816.2843633,233,1614455816,261181116,base_imu_link,0.09287002708509808,0.023138780966029004,-0.8599002703823719,0.5014092937720073,0.0025,0.0,0.0,0.0,0.0025,0.0,0.0,0.0,0.0025,-0.14,0.06,0.52,0.02,0.0,0.0,0.0,0.02,0.0,0.0,0.0,0.02,-4.11775390625,-1.0775108593749998,10.567114140625,0.04,0.0,0.0,0.0,0.04,0.0,0.0,0.0,0.04
1614455816.3047383,234,1614455816,281508922,base_imu_link,0.09418969713388153,0.03156684449764244,-0.8571657882371895,0.5053698118783974,0.0025,0.0,0.0,0.0,0.0025,0.0,0.0,0.0,0.0025,-0.13,-0.24,0.59,0.02,0.0,0.0,0.0,0.02,0.0,0.0,0.0,0.02,-1.000901484375,0.7323856249999999,9.743946406249998,0.04,0.0,0.0,0.0,0.04,0.0,0.0,0.0,0.04
1614455816.3222764,235,1614455816,298886060,base_imu_link,0.09126779136443536,0.028733481531993083,-0.8545748323903425,0.510437491906234,0.0025,0.0,0.0,0.0,0.0025,0.0,0.0,0.0,0.0025,-0.13,0.03,0.57,0.02,0.0,0.0,0.0,0.02,0.0,0.0,0.0,0.02,-1.259458125,1.01047765625,9.116515625,0.04,0.0,0.0,0.0,0.04,0.0,0.0,0.0,0.04
1614455816.3447871,236,1614455816,321585893,base_imu_link,0.0902689701976763,0.025103746040944588,-0.8518058511734833,0.5154106196624012,0.0025,0.0,0.0,0.0,0.0025,0.0,0.0,0.0,0.0025,-0.06,-0.09,0.57,0.02,0.0,0.0,0.0,0.02,0.0,0.0,0.0,0.02,-2.7196328124999996,-0.047880859374999994,9.28888671875,0.04,0.0,0.0,0.0,0.04,0.0,0.0,0.0,0.04
1614455816.3651624,237,1614455816,341656923,base_imu_link,0.09227092224046979,0.030573423007685285,-0.8487128657486914,0.5198440287500954,0.0025,0.0,0.0,0.0,0.0025,0.0,0.0,0.0,0.0025,-0.15,-0.09,0.58,0.02,0.0,0.0,0.0,0.02,0.0,0.0,0.0,0.02,-0.8381065624999999,0.258556640625,10.074132812499998,0.04,0.0,0.0,0.0,0.04,0.0,0.0,0.0,0.04
1614455816.3826323,238,1614455816,358966112,base_imu_link,0.0872707404346044,0.029604374756000484,-0.8465838371786668,0.5242167542983978,0.0025,0.0,0.0,0.0,0.0025,0.0,0.0,0.0,0.0025,-0.13,0.01,0.55,0.02,0.0,0.0,0.0,0.02,0.0,0.0,0.0,0.02,-1.3789687499999999,1.01507421875,8.857958984375,0.04,0.0,0.0,0.0,0.04,0.0,0.0,0.0,0.04
1614455816.406409,239,1614455816,381853103,base_imu_link,0.08730181064067721,0.027310183791243444,-0.8439346703018323,0.5285894626103375,0.0025,0.0,0.0,0.0,0.0025,0.0,0.0,0.0,0.0025,-0.14,-0.05,0.54,0.02,0.0,0.0,0.0,0.02,0.0,0.0,0.0,0.02,-3.5240312499999997,0.009576171875,9.470833984375,0.04,0.0,0.0,0.0,0.04,0.0,0.0,0.0,0.04
1614455816.4288816,240,1614455816,401787996,base_imu_link,0.0918471767392271,0.033966268847452324,-0.8410508012779091,0.5320187387446074,0.0025,0.0,0.0,0.0,0.0025,0.0,0.0,0.0,0.0025,-0.16,-0.18,0.53,0.02,0.0,0.0,0.0,0.02,0.0,0.0,0.0,0.02,-0.6032988281249999,0.23480773437499997,10.021272343749999,0.04,0.0,0.0,0.0,0.04,0.0,0.0,0.0,0.04
1614455816.4449477,241,1614455816,421694993,base_imu_link,0.08672268241563699,0.03278688145729543,-0.8391576375289954,0.5359278460163243,0.0025,0.0,0.0,0.0,0.0025,0.0,0.0,0.0,0.0025,-0.13,0.12,0.47,0.02,0.0,0.0,0.0,0.02,0.0,0.0,0.0,0.02,-1.8194726562499999,0.17237109374999998,8.94874109375,0.04,0.0,0.0,0.0,0.04,0.0,0.0,0.0,0.04
1614455816.4633322,242,1614455816,439019918,base_imu_link,0.08729328496408918,0.03348756219064477,-0.8369505732785859,0.5392329769843017,0.0025,0.0,0.0,0.0,0.0025,0.0,0.0,0.0,0.0025,0.0,-0.02,0.49,0.02,0.0,0.0,0.0,0.02,0.0,0.0,0.0,0.02,-4.223091796875,-0.9193125,10.064556640625,0.04,0.0,0.0,0.0,0.04,0.0,0.0,0.0,0.04
1614455816.4863822,243,1614455816,462209939,base_imu_link,0.09074820685641896,0.04249039377544335,-0.8341683746822114,0.5423305745292165,0.0025,0.0,0.0,0.0,0.0025,0.0,0.0,0.0,0.0025,-0.09,-0.19,0.51,0.02,0.0,0.0,0.0,0.02,0.0,0.0,0.0,0.02,-0.8955635937499998,1.3215117187499998,9.528291015625,0.04,0.0,0.0,0.0,0.04,0.0,0.0,0.0,0.04
1614455816.5024874,244,1614455816,479165077,base_imu_link,0.09000970309830247,0.03756545676159349,-0.8320190964984161,0.5461055876553614,0.0025,0.0,0.0,0.0,0.0025,0.0,0.0,0.0,0.0025,-0.21,0.14,0.48,0.02,0.0,0.0,0.0,0.02,0.0,0.0,0.0,0.02,-2.484825078125,0.65577625,9.33178796875,0.04,0.0,0.0,0.0,0.04,0.0,0.0,0.0,0.04
1614455816.525355,245,1614455816,502068042,base_imu_link,0.09314521319743999,0.037844005982412665,-0.8296067418038425,0.549221680583732,0.0025,0.0,0.0,0.0,0.0025,0.0,0.0,0.0,0.0025,-0.07,-0.09,0.52,0.02,0.0,0.0,0.0,0.02,0.0,0.0,0.0,0.02,-2.676348515625,0.292264765625,8.633110468749999,0.04,0.0,0.0,0.0,0.04,0.0,0.0,0.0,0.04
1614455816.5450993,246,1614455816,521977901,base_imu_link,0.09632744129309684,0.04088278899460477,-0.8270714767043231,0.5522702183171547,0.0025,0.0,0.0,0.0,0.0025,0.0,0.0,0.0,0.0025,-0.11,-0.01,0.5,0.02,0.0,0.0,0.0,0.02,0.0,0.0,0.0,0.02,-2.571010625,0.43590734375,10.394743046875,0.04,0.0,0.0,0.0,0.04,0.0,0.0,0.0,0.04
1614455816.562763,247,1614455816,539387941,base_imu_link,0.09711953126034775,0.043432389815958296,-0.824451130938536,0.5558432844397906,0.0025,0.0,0.0,0.0,0.0025,0.0,0.0,0.0,0.0025,-0.23,0.01,0.49,0.02,0.0,0.0,0.0,0.02,0.0,0.0,0.0,0.02,-1.8960820312499997,1.383948359375,8.9587003125,0.04,0.0,0.0,0.0,0.04,0.0,0.0,0.0,0.04
1614455816.585123,248,1614455816,561990022,base_imu_link,0.09772631337333118,0.039310626698394927,-0.8220449975512762,0.5595947321981858,0.0025,0.0,0.0,0.0,0.0025,0.0,0.0,0.0,0.0025,-0.17,-0.21,0.5,0.02,0.0,0.0,0.0,0.02,0.0,0.0,0.0,0.02,-2.6142949218749996,0.7710733593749999,8.90583984375,0.04,0.0,0.0,0.0,0.04,0.0,0.0,0.0,0.04
1614455816.6050656,249,1614455816,581998109,base_imu_link,0.10124423444005716,0.04066538921101853,-0.8191455656453802,0.5631131976756302,0.0025,0.0,0.0,0.0,0.0025,0.0,0.0,0.0,0.0025,-0.15,-0.0,0.53,0.02,0.0,0.0,0.0,0.02,0.0,0.0,0.0,0.02,-1.92979015625,-0.18654382812499998,9.825152343749998,0.04,0.0,0.0,0.0,0.04,0.0,0.0,0.0,0.04
1614455816.6262162,250,1614455816,602238893,base_imu_link,0.09854167249665235,0.04397609328814224,-0.816648769926676,0.5669571664402193,0.0025,0.0,0.0,0.0,0.0025,0.0,0.0,0.0,0.0025,-0.15,0.03,0.54,0.02,0.0,0.0,0.0,0.02,0.0,0.0,0.0,0.02,-3.035646484375,0.014555781249999998,10.576690312499998,0.04,0.0,0.0,0.0,0.04,0.0,0.0,0.0,0.04
1614455816.6453385,251,1614455816,622128009,base_imu_link,0.09794522872908198,0.04663597101390753,-0.8141482670225687,0.5704335348495438,0.0025,0.0,0.0,0.0,0.0025,0.0,0.0,0.0,0.0025,-0.16,-0.22,0.54,0.02,0.0,0.0,0.0,0.02,0.0,0.0,0.0,0.02,-1.66165734375,1.1349678906249998,9.226833124999999,0.04,0.0,0.0,0.0,0.04,0.0,0.0,0.0,0.04
1614455816.6629212,252,1614455816,639425039,base_imu_link,0.09875064497785928,0.04340937407003707,-0.8114645899156292,0.5743597789472763,0.0025,0.0,0.0,0.0,0.0025,0.0,0.0,0.0,0.0025,-0.14,0.01,0.55,0.02,0.0,0.0,0.0,0.02,0.0,0.0,0.0,0.02,-1.99184375,0.42633117187499997,8.967893437499999,0.04,0.0,0.0,0.0,0.04,0.0,0.0,0.0,0.04
1614455816.685507,253,1614455816,662255048,base_imu_link,0.09859630240880683,0.04409115024680842,-0.8088798772393407,0.5779689298037514,0.0025,0.0,0.0,0.0,0.0025,0.0,0.0,0.0,0.0025,-0.15,-0.04,0.56,0.02,0.0,0.0,0.0,0.02,0.0,0.0,0.0,0.02,-2.40859875,-0.32099328125,9.599920781249999,0.04,0.0,0.0,0.0,0.04,0.0,0.0,0.0,0.04
1614455816.705289,254,1614455816,682051897,base_imu_link,0.09738316058827244,0.04918107564476993,-0.806302169062953,0.5813557895098657,0.0025,0.0,0.0,0.0,0.0025,0.0,0.0,0.0,0.0025,-0.17,-0.0,0.52,0.02,0.0,0.0,0.0,0.02,0.0,0.0,0.0,0.02,-1.7332871093749997,0.622451171875,10.021272343749999,0.04,0.0,0.0,0.0,0.04,0.0,0.0,0.0,0.04
1614455816.7253845,255,1614455816,702229976,base_imu_link,0.09629032242090681,0.046515202203151036,-0.8043976724918225,0.5843876232962301,0.0025,0.0,0.0,0.0,0.0025,0.0,0.0,0.0,0.0025,-0.03,-0.07,0.43,0.02,0.0,0.0,0.0,0.02,0.0,0.0,0.0,0.02,-2.226651484375,1.326491328125,8.340845703125,0.04,0.0,0.0,0.0,0.04,0.0,0.0,0.0,0.04
1614455816.7456057,256,1614455816,722094058,base_imu_link,0.09940093904708483,0.045533462619629726,-0.801239663456685,0.5882696310385592,0.0025,0.0,0.0,0.0,0.0025,0.0,0.0,0.0,0.0025,-0.2,-0.01,0.52,0.02,0.0,0.0,0.0,0.02,0.0,0.0,0.0,0.02,-2.5185332031249996,-0.090782109375,9.719814453124998,0.04,0.0,0.0,0.0,0.04,0.0,0.0,0.0,0.04
1614455816.7628074,257,1614455816,739552974,base_imu_link,0.09872794194083788,0.04980174921324745,-0.798514626609864,0.5917321778858547,0.0025,0.0,0.0,0.0,0.0025,0.0,0.0,0.0,0.0025,-0.19,-0.03,0.55,0.02,0.0,0.0,0.0,0.02,0.0,0.0,0.0,0.02,-2.1450625,-0.43590734375,10.907259765625,0.04,0.0,0.0,0.0,0.04,0.0,0.0,0.0,0.04
1614455816.7852771,258,1614455816,762082099,base_imu_link,0.09610075374029835,0.051389353216428776,-0.7966680708835995,0.594511366031927,0.0025,0.0,0.0,0.0,0.0025,0.0,0.0,0.0,0.0025,-0.03,-0.05,0.49,0.02,0.0,0.0,0.0,0.02,0.0,0.0,0.0,0.02,-1.728690546875,0.26353624999999997,8.680608281249999,0.04,0.0,0.0,0.0,0.04,0.0,0.0,0.0,0.04
1614455816.8053272,259,1614455816,782182931,base_imu_link,0.0966091871902008,0.05126409040395123,-0.7941437447992453,0.5978079713266922,0.0025,0.0,0.0,0.0,0.0025,0.0,0.0,0.0,0.0025,-0.0,0.07,0.51,0.02,0.0,0.0,0.0,0.02,0.0,0.0,0.0,0.02,-3.131408203125,0.009576171875,9.355919921875,0.04,0.0,0.0,0.0,0.04,0.0,0.0,0.0,0.04
1614455816.82414,260,1614455816,799882888,base_imu_link,0.09993902723217,0.056892895612059804,-0.7910520004826407,0.6008428428442627,0.0025,0.0,0.0,0.0,0.0025,0.0,0.0,0.0,0.0025,-0.15,0.02,0.52,0.02,0.0,0.0,0.0,0.02,0.0,0.0,0.0,0.02,-2.2216718749999997,1.259458125,9.863457031249999,0.04,0.0,0.0,0.0,0.04,0.0,0.0,0.0,0.04
1614455816.8453763,261,1614455816,822223901,base_imu_link,0.10120872942842077,0.05338043024838823,-0.7881711304451487,0.6047260469723441,0.0025,0.0,0.0,0.0,0.0025,0.0,0.0,0.0,0.0025,-0.16,-0.11,0.49,0.02,0.0,0.0,0.0,0.02,0.0,0.0,0.0,0.02,-2.9398847656249996,1.24030578125,9.09276671875,0.04,0.0,0.0,0.0,0.04,0.0,0.0,0.0,0.04
1614455816.86531,262,1614455816,842129945,base_imu_link,0.10592888372821152,0.051563956376705744,-0.7850098409643836,0.6081774244280608,0.0025,0.0,0.0,0.0,0.0025,0.0,0.0,0.0,0.0025,-0.08,-0.19,0.54,0.02,0.0,0.0,0.0,0.02,0.0,0.0,0.0,0.02,-1.7574190625,0.3784503125,9.09276671875,0.04,0.0,0.0,0.0,0.04,0.0,0.0,0.0,0.04
1614455816.8857749,263,1614455816,862390041,base_imu_link,0.10418511627815828,0.05084747852610477,-0.782861309816175,0.6113003885705838,0.0025,0.0,0.0,0.0,0.0025,0.0,0.0,0.0,0.0025,-0.1,-0.03,0.53,0.02,0.0,0.0,0.0,0.02,0.0,0.0,0.0,0.02,-2.4560965625,-0.20607921875,9.987947265625,0.04,0.0,0.0,0.0,0.04,0.0,0.0,0.0,0.04
1614455816.9028513,264,1614455816,879761934,base_imu_link,0.10230173599247785,0.055208600991966006,-0.7802533369652609,0.6145657778822461,0.0025,0.0,0.0,0.0,0.0025,0.0,0.0,0.0,0.0025,-0.2,0.01,0.53,0.02,0.0,0.0,0.0,0.02,0.0,0.0,0.0,0.02,-2.6621757812499998,0.699060546875,9.940066406249999,0.04,0.0,0.0,0.0,0.04,0.0,0.0,0.0,0.04
1614455816.9254262,265,1614455816,902404069,base_imu_link,0.10266591712875979,0.05447380950383327,-0.7776564344314499,0.6178533673337183,0.0025,0.0,0.0,0.0,0.0025,0.0,0.0,0.0,0.0025,-0.13,-0.2,0.53,0.02,0.0,0.0,0.0,0.02,0.0,0.0,0.0,0.02,-1.9822675781249999,1.211577265625,8.77637,0.04,0.0,0.0,0.0,0.04,0.0,0.0,0.0,0.04
1614455816.9456131,266,1614455816,922435045,base_imu_link,0.10466181912958879,0.0512084339339006,-0.7745293344072582,0.6217136881661625,0.0025,0.0,0.0,0.0,0.0025,0.0,0.0,0.0,0.0025,-0.06,-0.05,0.56,0.02,0.0,0.0,0.0,0.02,0.0,0.0,0.0,0.02,-2.4419238281249998,-0.19152343749999998,9.901761718749999,0.04,0.0,0.0,0.0,0.04,0.0,0.0,0.0,0.04
1614455816.9657357,267,1614455816,942375898,base_imu_link,0.10238186515411679,0.054446287282251676,-0.772152030046526,0.6247677952517812,0.0025,0.0,0.0,0.0,0.0025,0.0,0.0,0.0,0.0025,-0.14,-0.07,0.56,0.02,0.0,0.0,0.0,0.02,0.0,0.0,0.0,0.02,-2.111737421875,-0.330569453125,9.949642578125,0.04,0.0,0.0,0.0,0.04,0.0,0.0,0.0,0.04
1614455816.985861,268,1614455816,962553977,base_imu_link,0.09872815470168214,0.05767883504160409,-0.7697815460359962,0.627982702659775,0.0025,0.0,0.0,0.0,0.0025,0.0,0.0,0.0,0.0025,-0.17,-0.02,0.51,0.02,0.0,0.0,0.0,0.02,0.0,0.0,0.0,0.02,-1.7620156249999999,0.6799082031249999,9.758119140624999,0.04,0.0,0.0,0.0,0.04,0.0,0.0,0.0,0.04
1614455817.0053566,269,1614455816,982400894,base_imu_link,0.09762225376768013,0.05477141736209281,-0.7675190777354041,0.6311770375430816,0.0025,0.0,0.0,0.0,0.0025,0.0,0.0,0.0,0.0025,-0.07,-0.07,0.47,0.02,0.0,0.0,0.0,0.02,0.0,0.0,0.0,0.02,-2.173791015625,0.741961796875,8.75262109375,0.04,0.0,0.0,0.0,0.04,0.0,0.0,0.0,0.04
1614455817.0231028,270,1614455816,999891996,base_imu_link,0.099160733267789,0.05454985884725834,-0.7647245678261332,0.6343404426967215,0.0025,0.0,0.0,0.0,0.0025,0.0,0.0,0.0,0.0025,-0.12,-0.01,0.52,0.02,0.0,0.0,0.0,0.02,0.0,0.0,0.0,0.02,-3.437845703125,-0.9001601562499999,10.227351562499999,0.04,0.0,0.0,0.0,0.04,0.0,0.0,0.0,0.04
1614455817.0454965,271,1614455817,22509098,base_imu_link,0.09834719354006456,0.06197640172649996,-0.7622971209927726,0.6367023279979105,0.0025,0.0,0.0,0.0,0.0025,0.0,0.0,0.0,0.0025,-0.14,-0.08,0.53,0.02,0.0,0.0,0.0,0.02,0.0,0.0,0.0,0.02,-1.24030578125,0.63662390625,9.796423828124999,0.04,0.0,0.0,0.0,0.04,0.0,0.0,0.0,0.04
1614455817.065239,272,1614455817,42314052,base_imu_link,0.0957298967673823,0.057228707767555356,-0.76054203057535,0.6396377737442385,0.0025,0.0,0.0,0.0,0.0025,0.0,0.0,0.0,0.0025,-0.04,-0.01,0.48,0.02,0.0,0.0,0.0,0.02,0.0,0.0,0.0,0.02,-1.9631152343749998,1.24490234375,7.952819218749999,0.04,0.0,0.0,0.0,0.04,0.0,0.0,0.0,0.04
1614455817.0850284,273,1614455817,61999082,base_imu_link,0.0982744992538076,0.05596747374035524,-0.7576791944721774,0.6427534542447272,0.0025,0.0,0.0,0.0,0.0025,0.0,0.0,0.0,0.0025,-0.15,0.01,0.5,0.02,0.0,0.0,0.0,0.02,0.0,0.0,0.0,0.02,-3.9312100781249995,-0.45008007812499995,10.533789062499999,0.04,0.0,0.0,0.0,0.04,0.0,0.0,0.0,0.04
1614455817.1053252,274,1614455817,82350015,base_imu_link,0.09880546226843187,0.0615904984091748,-0.7550951176180729,0.6451941215486855,0.0025,0.0,0.0,0.0,0.0025,0.0,0.0,0.0,0.0025,-0.14,-0.19,0.52,0.02,0.0,0.0,0.0,0.02,0.0,0.0,0.0,0.02,-1.671233515625,1.1541202343749999,9.585748046874999,0.04,0.0,0.0,0.0,0.04,0.0,0.0,0.0,0.04
1614455817.1255121,275,1614455817,102421045,base_imu_link,0.09975248240249904,0.056238404705388365,-0.7525653422674725,0.6484844560269538,0.0025,0.0,0.0,0.0,0.0025,0.0,0.0,0.0,0.0025,-0.02,-0.01,0.51,0.02,0.0,0.0,0.0,0.02,0.0,0.0,0.0,0.02,-1.89148546875,0.7611141406249999,8.384129999999999,0.04,0.0,0.0,0.0,0.04,0.0,0.0,0.0,0.04
1614455817.1457555,276,1614455817,122565031,base_imu_link,0.10017886030118782,0.05590546072285015,-0.7496738299057688,0.6517882510175662,0.0025,0.0,0.0,0.0,0.0025,0.0,0.0,0.0,0.0025,-0.16,-0.02,0.53,0.02,0.0,0.0,0.0,0.02,0.0,0.0,0.0,0.02,-3.21759375,-0.42633117187499997,10.394743046875,0.04,0.0,0.0,0.0,0.04,0.0,0.0,0.0,0.04
1614455817.1652598,277,1614455817,142296075,base_imu_link,0.0992460702979602,0.06209725663421224,-0.7468113008012587,0.6546503106578726,0.0025,0.0,0.0,0.0,0.0025,0.0,0.0,0.0,0.0025,-0.23,-0.03,0.54,0.02,0.0,0.0,0.0,0.02,0.0,0.0,0.0,0.02,-2.058876953125,0.01915234375,10.189046874999999,0.04,0.0,0.0,0.0,0.04,0.0,0.0,0.0,0.04
1614455817.18545,278,1614455817,162457942,base_imu_link,0.09650556837577329,0.06255751564458512,-0.7443754774788759,0.6577829285082898,0.0025,0.0,0.0,0.0,0.0025,0.0,0.0,0.0,0.0025,-0.12,-0.06,0.54,0.02,0.0,0.0,0.0,0.02,0.0,0.0,0.0,0.02,-1.412676875,0.9863457031249999,8.2784090625,0.04,0.0,0.0,0.0,0.04,0.0,0.0,0.0,0.04
1614455817.2053227,279,1614455817,182372093,base_imu_link,0.0968332772849798,0.059063967091257615,-0.741457515756402,0.6613437204132494,0.0025,0.0,0.0,0.0,0.0025,0.0,0.0,0.0,0.0025,-0.05,-0.05,0.56,0.02,0.0,0.0,0.0,0.02,0.0,0.0,0.0,0.02,-2.997341796875,0.06243664062499999,9.561616093749999,0.04,0.0,0.0,0.0,0.04,0.0,0.0,0.0,0.04
1614455817.225447,280,1614455817,202388048,base_imu_link,0.09789963842028247,0.06331467546901054,-0.7384777556669065,0.6641216131497305,0.0025,0.0,0.0,0.0,0.0025,0.0,0.0,0.0,0.0025,-0.15,-0.07,0.55,0.02,0.0,0.0,0.0,0.02,0.0,0.0,0.0,0.02,-1.3215117187499998,0.014555781249999998,10.390146484374998,0.04,0.0,0.0,0.0,0.04,0.0,0.0,0.0,0.04
1614455817.2458034,281,1614455817,222836971,base_imu_link,0.093069128432312,0.06216018566136888,-0.7362893520810122,0.6673471650224618,0.0025,0.0,0.0,0.0,0.0025,0.0,0.0,0.0,0.0025,-0.14,0.02,0.53,0.02,0.0,0.0,0.0,0.02,0.0,0.0,0.0,0.02,-2.154638671875,0.63662390625,9.767695312499999,0.04,0.0,0.0,0.0,0.04,0.0,0.0,0.0,0.04
1614455817.2657657,282,1614455817,242605924,base_imu_link,0.09314875076776846,0.060505363001991073,-0.7336735165586393,0.6703622769658817,0.0025,0.0,0.0,0.0,0.0025,0.0,0.0,0.0,0.0025,-0.09,-0.12,0.49,0.02,0.0,0.0,0.0,0.02,0.0,0.0,0.0,0.02,-2.0301484375,0.6607558593749999,8.297561406249999,0.04,0.0,0.0,0.0,0.04,0.0,0.0,0.0,0.04
1614455817.283995,283,1614455817,260716915,base_imu_link,0.09426948886661007,0.06131750594361734,-0.7309246468253774,0.6731289531708466,0.0025,0.0,0.0,0.0,0.0025,0.0,0.0,0.0,0.0025,-0.19,0.03,0.48,0.02,0.0,0.0,0.0,0.02,0.0,0.0,0.0,0.02,-2.27912890625,-0.67492859375,10.323113281249999,0.04,0.0,0.0,0.0,0.04,0.0,0.0,0.0,0.04
1614455817.3056252,284,1614455817,282675981,base_imu_link,0.09061914477824876,0.06546397662444205,-0.7286444113148403,0.6757070076770131,0.0025,0.0,0.0,0.0,0.0025,0.0,0.0,0.0,0.0025,-0.15,-0.0,0.5,0.02,0.0,0.0,0.0,0.02,0.0,0.0,0.0,0.02,-2.9923621875,0.598702265625,10.485908203125,0.04,0.0,0.0,0.0,0.04,0.0,0.0,0.0,0.04
1614455817.3256443,285,1614455817,302613019,base_imu_link,0.09218323232241683,0.06552271449789987,-0.7259425188297747,0.678392574339151,0.0025,0.0,0.0,0.0,0.0025,0.0,0.0,0.0,0.0025,-0.08,-0.16,0.48,0.02,0.0,0.0,0.0,0.02,0.0,0.0,0.0,0.02,-1.7957237499999998,0.7086367187499999,8.6951640625,0.04,0.0,0.0,0.0,0.04,0.0,0.0,0.0,0.04
1614455817.3434527,286,1614455817,320409059,base_imu_link,0.09321708888225994,0.06403063772834877,-0.7227961827013989,0.6817450623544725,0.0025,0.0,0.0,0.0,0.0025,0.0,0.0,0.0,0.0025,-0.06,0.01,0.51,0.02,0.0,0.0,0.0,0.02,0.0,0.0,0.0,0.02,-3.5768917187499993,-1.000901484375,10.67245203125,0.04,0.0,0.0,0.0,0.04,0.0,0.0,0.0,0.04
1614455817.3659024,287,1614455817,342701911,base_imu_link,0.09261400612817244,0.07079021248113739,-0.7199537712842967,0.6841622314183127,0.0025,0.0,0.0,0.0,0.0025,0.0,0.0,0.0,0.0025,-0.11,-0.03,0.54,0.02,0.0,0.0,0.0,0.02,0.0,0.0,0.0,0.02,-2.154638671875,0.9242921093749998,10.217775390624999,0.04,0.0,0.0,0.0,0.04,0.0,0.0,0.0,0.04
1614455817.3858097,288,1614455817,362600088,base_imu_link,0.09361025049600438,0.06632463189689755,-0.7173845334413771,0.6871663520465142,0.0025,0.0,0.0,0.0,0.0025,0.0,0.0,0.0,0.0025,0.03,-0.16,0.5,0.02,0.0,0.0,0.0,0.02,0.0,0.0,0.0,0.02,-2.1404659374999997,1.2065976562499998,7.919494140624999,0.04,0.0,0.0,0.0,0.04,0.0,0.0,0.0,0.04
1614455817.4064708,289,1614455817,382977962,base_imu_link,0.09653719173751539,0.06627860903230641,-0.7142336508428873,0.6900420339369316,0.0025,0.0,0.0,0.0,0.0025,0.0,0.0,0.0,0.0025,-0.2,0.07,0.5,0.02,0.0,0.0,0.0,0.02,0.0,0.0,0.0,0.02,-2.9686132812499997,-0.047880859374999994,10.610398437499999,0.04,0.0,0.0,0.0,0.04,0.0,0.0,0.0,0.04
1614455817.4267666,290,1614455817,402862071,base_imu_link,0.09572936721028799,0.06919296172657015,-0.7116291056895884,0.692554862979432,0.0025,0.0,0.0,0.0,0.0025,0.0,0.0,0.0,0.0025,-0.16,-0.08,0.52,0.02,0.0,0.0,0.0,0.02,0.0,0.0,0.0,0.02,-1.7524394531249998,0.9480410156249999,9.518714843749999,0.04,0.0,0.0,0.0,0.04,0.0,0.0,0.0,0.04
1614455817.4463618,291,1614455817,422889947,base_imu_link,0.09551716866588456,0.06459410889660099,-0.7084836581817706,0.6962434758583256,0.0025,0.0,0.0,0.0,0.0025,0.0,0.0,0.0,0.0025,-0.06,-0.11,0.52,0.02,0.0,0.0,0.0,0.02,0.0,0.0,0.0,0.02,-2.331989375,-0.10533789062499999,8.767176874999999,0.04,0.0,0.0,0.0,0.04,0.0,0.0,0.0,0.04
1614455817.4897056,292,1614455817,442950010,base_imu_link,0.09467729013957077,0.0683854175397171,-0.7056002579107344,0.698919109365348,0.0025,0.0,0.0,0.0,0.0025,0.0,0.0,0.0,0.0025,-0.19,0.05,0.54,0.02,0.0,0.0,0.0,0.02,0.0,0.0,0.0,0.02,-1.9056582031249998,0.11031749999999999,10.59124609375,0.04,0.0,0.0,0.0,0.04,0.0,0.0,0.0,0.04
1614455817.493857,293,1614455817,462872028,base_imu_link,0.09149701361026688,0.06749249845987904,-0.7032134079137387,0.7018290119982158,0.0025,0.0,0.0,0.0,0.0025,0.0,0.0,0.0,0.0025,-0.11,-0.09,0.52,0.02,0.0,0.0,0.0,0.02,0.0,0.0,0.0,0.02,-1.62335265625,0.41177539062499996,8.953720703124999,0.04,0.0,0.0,0.0,0.04,0.0,0.0,0.0,0.04
1614455817.506454,294,1614455817,483403921,base_imu_link,0.09098586560627962,0.0656543418441544,-0.7005370525372444,0.7047403193228815,0.0025,0.0,0.0,0.0,0.0025,0.0,0.0,0.0,0.0025,-0.03,-0.01,0.54,0.02,0.0,0.0,0.0,0.02,0.0,0.0,0.0,0.02,-3.12183203125,-0.40219921875,9.28888671875,0.04,0.0,0.0,0.0,0.04,0.0,0.0,0.0,0.04
1614455817.5260067,295,1614455817,503006935,base_imu_link,0.0907548884555495,0.07182255456242224,-0.6973847758942442,0.7072902835671385,0.0025,0.0,0.0,0.0,0.0025,0.0,0.0,0.0,0.0025,-0.12,-0.14,0.54,0.02,0.0,0.0,0.0,0.02,0.0,0.0,0.0,0.02,-0.9097363281249999,0.08120593749999999,9.935469843749999,0.04,0.0,0.0,0.0,0.04,0.0,0.0,0.0,0.04
1614455817.546148,296,1614455817,523139953,base_imu_link,0.0852843335826334,0.06935802851852652,-0.695294982680366,0.7102682122866677,0.0025,0.0,0.0,0.0,0.0025,0.0,0.0,0.0,0.0025,-0.18,0.09,0.48,0.02,0.0,0.0,0.0,0.02,0.0,0.0,0.0,0.02,-2.173791015625,-0.14364257812499998,10.179470703124998,0.04,0.0,0.0,0.0,0.04,0.0,0.0,0.0,0.04
1614455817.5662494,297,1614455817,543059110,base_imu_link,0.08339731282844802,0.06979928865288305,-0.6929148294688868,0.7127706409628901,0.0025,0.0,0.0,0.0,0.0025,0.0,0.0,0.0,0.0025,-0.04,-0.1,0.46,0.02,0.0,0.0,0.0,0.02,0.0,0.0,0.0,0.02,-2.226651484375,0.445483515625,8.010276249999999,0.04,0.0,0.0,0.0,0.04,0.0,0.0,0.0,0.04
1614455817.5864236,298,1614455817,563376903,base_imu_link,0.08524207771627193,0.07109604878437965,-0.6899628046185737,0.7152834880498319,0.0025,0.0,0.0,0.0,0.0025,0.0,0.0,0.0,0.0025,-0.1,0.02,0.45,0.02,0.0,0.0,0.0,0.02,0.0,0.0,0.0,0.02,-2.5664140625,-0.076609375,10.361417968749999,0.04,0.0,0.0,0.0,0.04,0.0,0.0,0.0,0.04
1614455817.6061144,299,1614455817,583076000,base_imu_link,0.0845670647101991,0.07396277667943729,-0.6872016237169722,0.7177268614124217,0.0025,0.0,0.0,0.0,0.0025,0.0,0.0,0.0,0.0025,-0.16,0.02,0.45,0.02,0.0,0.0,0.0,0.02,0.0,0.0,0.0,0.02,-2.8391434374999998,0.21067578124999997,10.351841796874998,0.04,0.0,0.0,0.0,0.04,0.0,0.0,0.0,0.04
1614455817.6260233,300,1614455817,603089094,base_imu_link,0.08541031136725498,0.07428656799266874,-0.684695695117253,0.7199849926324304,0.0025,0.0,0.0,0.0,0.0025,0.0,0.0,0.0,0.0025,-0.03,-0.16,0.46,0.02,0.0,0.0,0.0,0.02,0.0,0.0,0.0,0.02,-2.1929433593749996,0.7086367187499999,8.283388671874999,0.04,0.0,0.0,0.0,0.04,0.0,0.0,0.0,0.04
1614455817.646415,301,1614455817,623514890,base_imu_link,0.08767534314418572,0.07388610374448054,-0.6815819819105314,0.7227031754551249,0.0025,0.0,0.0,0.0,0.0025,0.0,0.0,0.0,0.0025,-0.07,-0.03,0.48,0.02,0.0,0.0,0.0,0.02,0.0,0.0,0.0,0.02,-3.1076592968749996,-0.47421203125,10.624571171874999,0.04,0.0,0.0,0.0,0.04,0.0,0.0,0.0,0.04
1614455817.6665063,302,1614455817,643394947,base_imu_link,0.0870618364978005,0.07855403000868937,-0.6789729494952259,0.724738045674972,0.0025,0.0,0.0,0.0,0.0025,0.0,0.0,0.0,0.0025,-0.14,0.02,0.47,0.02,0.0,0.0,0.0,0.02,0.0,0.0,0.0,0.02,-2.1450625,0.967193359375,10.356438359375,0.04,0.0,0.0,0.0,0.04,0.0,0.0,0.0,0.04
1614455817.6862822,303,1614455817,663368940,base_imu_link,0.0878997973017149,0.07381091142877502,-0.6764071911853907,0.7275293029844648,0.0025,0.0,0.0,0.0,0.0025,0.0,0.0,0.0,0.0025,-0.0,-0.19,0.46,0.02,0.0,0.0,0.0,0.02,0.0,0.0,0.0,0.02,-2.269552734375,1.1874453125,8.130169921875,0.04,0.0,0.0,0.0,0.04,0.0,0.0,0.0,0.04
1614455817.7062578,304,1614455817,683372974,base_imu_link,0.09109359769115147,0.07414650902448736,-0.6728883406931457,0.7303598651475788,0.0025,0.0,0.0,0.0,0.0025,0.0,0.0,0.0,0.0025,-0.22,0.06,0.44,0.02,0.0,0.0,0.0,0.02,0.0,0.0,0.0,0.02,-2.66677234375,0.41177539062499996,10.758637578124999,0.04,0.0,0.0,0.0,0.04,0.0,0.0,0.0,0.04
1614455817.7263076,305,1614455817,703403949,base_imu_link,0.09019581880125979,0.07423753774810911,-0.6699716529465631,0.733138108754359,0.0025,0.0,0.0,0.0,0.0025,0.0,0.0,0.0,0.0025,-0.15,-0.13,0.48,0.02,0.0,0.0,0.0,0.02,0.0,0.0,0.0,0.02,-1.771591796875,1.1108359374999999,9.21687390625,0.04,0.0,0.0,0.0,0.04,0.0,0.0,0.0,0.04
1614455817.7438445,306,1614455817,720880031,base_imu_link,0.0914621937643228,0.07062461634082942,-0.6669154355745242,0.7361186266295473,0.0025,0.0,0.0,0.0,0.0025,0.0,0.0,0.0,0.0025,-0.12,-0.03,0.49,0.02,0.0,0.0,0.0,0.02,0.0,0.0,0.0,0.02,-3.9312100781249995,-0.545841796875,10.126610234374999,0.04,0.0,0.0,0.0,0.04,0.0,0.0,0.0,0.04
1614455817.7665005,307,1614455817,743446111,base_imu_link,0.09164662826756428,0.07789200648688446,-0.6638589515077483,0.7381226343607592,0.0025,0.0,0.0,0.0,0.0025,0.0,0.0,0.0,0.0025,-0.14,-0.11,0.51,0.02,0.0,0.0,0.0,0.02,0.0,0.0,0.0,0.02,-1.0679346875,0.330569453125,10.313537109375,0.04,0.0,0.0,0.0,0.04,0.0,0.0,0.0,0.04
1614455817.7862442,308,1614455817,763403892,base_imu_link,0.08681335049656046,0.07322488849033483,-0.661583598106799,0.7412210875286811,0.0025,0.0,0.0,0.0,0.0025,0.0,0.0,0.0,0.0025,-0.11,-0.07,0.46,0.02,0.0,0.0,0.0,0.02,0.0,0.0,0.0,0.02,-1.6808096875,1.1682929687499999,8.417455078125,0.04,0.0,0.0,0.0,0.04,0.0,0.0,0.0,0.04
1614455817.8064446,309,1614455817,783438920,base_imu_link,0.08832946915637367,0.07081753333477359,-0.6586941552597457,0.7438446018339998,0.0025,0.0,0.0,0.0,0.0025,0.0,0.0,0.0,0.0025,-0.15,-0.02,0.5,0.02,0.0,0.0,0.0,0.02,0.0,0.0,0.0,0.02,-2.681328125,-0.0720128125,9.269734374999999,0.04,0.0,0.0,0.0,0.04,0.0,0.0,0.0,0.04
1614455817.826271,310,1614455817,803375005,base_imu_link,0.08785226284952159,0.0742209364220914,-0.6555429030332615,0.7463489363505321,0.0025,0.0,0.0,0.0,0.0025,0.0,0.0,0.0,0.0025,-0.11,-0.1,0.53,0.02,0.0,0.0,0.0,0.02,0.0,0.0,0.0,0.02,-1.5800683593749998,0.2681328125,10.6870078125,0.04,0.0,0.0,0.0,0.04,0.0,0.0,0.0,0.04
1614455817.8463175,311,1614455817,823429107,base_imu_link,0.08431122272494913,0.07176471738342514,-0.6526894567367552,0.7494917718869104,0.0025,0.0,0.0,0.0,0.0025,0.0,0.0,0.0,0.0025,-0.12,-0.09,0.5,0.02,0.0,0.0,0.0,0.02,0.0,0.0,0.0,0.02,-1.235326171875,0.201099609375,8.551521484375,0.04,0.0,0.0,0.0,0.04,0.0,0.0,0.0,0.04
1614455817.8664832,312,1614455817,843630075,base_imu_link,0.08285953235145976,0.07116052100204955,-0.6496777795766937,0.7523225776709823,0.0025,0.0,0.0,0.0,0.0025,0.0,0.0,0.0,0.0025,-0.1,0.08,0.51,0.02,0.0,0.0,0.0,0.02,0.0,0.0,0.0,0.02,-3.3757921093749994,-0.35431835937499995,10.083708984374999,0.04,0.0,0.0,0.0,0.04,0.0,0.0,0.0,0.04
1614455817.886346,313,1614455817,863343954,base_imu_link,0.08284590193159178,0.0762739020217335,-0.6465980225365318,0.7544732239485819,0.0025,0.0,0.0,0.0,0.0025,0.0,0.0,0.0,0.0025,-0.09,-0.14,0.49,0.02,0.0,0.0,0.0,0.02,0.0,0.0,0.0,0.02,-1.537167109375,0.17696765625,10.313537109375,0.04,0.0,0.0,0.0,0.04,0.0,0.0,0.0,0.04
1614455817.9072866,314,1614455817,883883953,base_imu_link,0.08091181251448752,0.07502377717020417,-0.6439479383230382,0.7570705146710209,0.0025,0.0,0.0,0.0,0.0025,0.0,0.0,0.0,0.0025,-0.07,0.1,0.44,0.02,0.0,0.0,0.0,0.02,0.0,0.0,0.0,0.02,-1.4747304687499998,0.4550596875,7.742143437499999,0.04,0.0,0.0,0.0,0.04,0.0,0.0,0.0,0.04
1614455817.9253678,315,1614455817,901336908,base_imu_link,0.08173857085174344,0.07417368386436998,-0.6408391833141686,0.7596987638441518,0.0025,0.0,0.0,0.0,0.0025,0.0,0.0,0.0,0.0025,-0.02,0.03,0.49,0.02,0.0,0.0,0.0,0.02,0.0,0.0,0.0,0.02,-4.510376953124999,-0.009576171875,10.198623046875,0.04,0.0,0.0,0.0,0.04,0.0,0.0,0.0,0.04
1614455817.946478,316,1614455817,923588991,base_imu_link,0.0847160394771759,0.08068479615385492,-0.6375116758488338,0.7615064146028737,0.0025,0.0,0.0,0.0,0.0025,0.0,0.0,0.0,0.0025,-0.14,-0.18,0.49,0.02,0.0,0.0,0.0,0.02,0.0,0.0,0.0,0.02,-1.6425049999999999,0.42633117187499997,9.892185546875,0.04,0.0,0.0,0.0,0.04,0.0,0.0,0.0,0.04
1614455817.9663897,317,1614455817,943401098,base_imu_link,0.08316693309435937,0.07764839178445343,-0.6346918495368248,0.7643430150295685,0.0025,0.0,0.0,0.0,0.0025,0.0,0.0,0.0,0.0025,-0.06,-0.03,0.48,0.02,0.0,0.0,0.0,0.02,0.0,0.0,0.0,0.02,-1.498862421875,0.340145625,8.245083984374999,0.04,0.0,0.0,0.0,0.04,0.0,0.0,0.0,0.04
1614455817.9856772,318,1614455817,961252927,base_imu_link,0.08289451501476025,0.07682885594712122,-0.6315975521569582,0.7670139232006566,0.0025,0.0,0.0,0.0,0.0025,0.0,0.0,0.0,0.0025,-0.06,0.02,0.48,0.02,0.0,0.0,0.0,0.02,0.0,0.0,0.0,0.02,-3.6918057812499994,-0.39760265625,10.720332890624999,0.04,0.0,0.0,0.0,0.04,0.0,0.0,0.0,0.04
1614455818.0065606,319,1614455817,983704090,base_imu_link,0.08218214971162716,0.08140064081335756,-0.6284209193304404,0.7692250503538185,0.0025,0.0,0.0,0.0,0.0025,0.0,0.0,0.0,0.0025,-0.15,-0.17,0.49,0.02,0.0,0.0,0.0,0.02,0.0,0.0,0.0,0.02,-1.407697265625,1.407697265625,9.518714843749999,0.04,0.0,0.0,0.0,0.04,0.0,0.0,0.0,0.04
1614455818.0268197,320,1614455818,3832101,base_imu_link,0.08345975594250438,0.0740907938085852,-0.6252942208875281,0.7723678920925511,0.0025,0.0,0.0,0.0,0.0025,0.0,0.0,0.0,0.0025,-0.1,-0.11,0.47,0.02,0.0,0.0,0.0,0.02,0.0,0.0,0.0,0.02,-0.8139746093749999,1.062955078125,7.737546875,0.04,0.0,0.0,0.0,0.04,0.0,0.0,0.0,0.04
1614455818.0450628,321,1614455818,21543979,base_imu_link,0.08290738393789555,0.07218667953679368,-0.622245192815309,0.7750653965984198,0.0025,0.0,0.0,0.0,0.0025,0.0,0.0,0.0,0.0025,-0.22,0.06,0.45,0.02,0.0,0.0,0.0,0.02,0.0,0.0,0.0,0.02,-3.6868261718749995,-0.5554179687499999,11.256598515624999,0.04,0.0,0.0,0.0,0.04,0.0,0.0,0.0,0.04
1614455818.0666115,322,1614455818,43768882,base_imu_link,0.08093693298275122,0.07572626452073142,-0.6193398621396665,0.7772598541709849,0.0025,0.0,0.0,0.0,0.0025,0.0,0.0,0.0,0.0025,-0.14,-0.24,0.5,0.02,0.0,0.0,0.0,0.02,0.0,0.0,0.0,0.02,-1.503458984375,0.9288886718749999,9.681509765625,0.04,0.0,0.0,0.0,0.04,0.0,0.0,0.0,0.04
1614455818.086802,323,1614455818,63941955,base_imu_link,0.08155365145783247,0.07181432379516318,-0.6156669827040813,0.780477976140128,0.0025,0.0,0.0,0.0,0.0025,0.0,0.0,0.0,0.0025,-0.08,0.03,0.52,0.02,0.0,0.0,0.0,0.02,0.0,0.0,0.0,0.02,-1.92979015625,0.464635859375,8.599402343749999,0.04,0.0,0.0,0.0,0.04,0.0,0.0,0.0,0.04
1614455818.1068814,324,1614455818,84032058,base_imu_link,0.0820100692701876,0.07255142717918096,-0.6124465332828787,0.7828919994624719,0.0025,0.0,0.0,0.0,0.0025,0.0,0.0,0.0,0.0025,-0.13,0.03,0.53,0.02,0.0,0.0,0.0,0.02,0.0,0.0,0.0,0.02,-2.8441230468749996,-0.16739148437499998,9.9975234375,0.04,0.0,0.0,0.0,0.04,0.0,0.0,0.0,0.04
1614455818.126636,325,1614455818,103806972,base_imu_link,0.08042386661114273,0.07574998881262851,-0.609015079005903,0.7854263647329607,0.0025,0.0,0.0,0.0,0.0025,0.0,0.0,0.0,0.0025,-0.12,-0.17,0.55,0.02,0.0,0.0,0.0,0.02,0.0,0.0,0.0,0.02,-1.6949824218749998,0.8764112499999999,9.74854296875,0.04,0.0,0.0,0.0,0.04,0.0,0.0,0.0,0.04
1614455818.146874,326,1614455818,123914003,base_imu_link,0.0808918077644051,0.07254953884320636,-0.6053652883022995,0.7884960035212091,0.0025,0.0,0.0,0.0,0.0025,0.0,0.0,0.0,0.0025,-0.1,-0.03,0.52,0.02,0.0,0.0,0.0,0.02,0.0,0.0,0.0,0.02,-1.51303515625,0.7036571093749999,8.32667296875,0.04,0.0,0.0,0.0,0.04,0.0,0.0,0.0,0.04
1614455818.1675162,327,1614455818,144160032,base_imu_link,0.08084909237531021,0.07194804956119642,-0.6014590080277524,0.7915389845665849,0.0025,0.0,0.0,0.0,0.0025,0.0,0.0,0.0,0.0025,-0.17,0.03,0.52,0.02,0.0,0.0,0.0,0.02,0.0,0.0,0.0,0.02,-3.0547988281249996,-0.067033203125,10.399722656249999,0.04,0.0,0.0,0.0,0.04,0.0,0.0,0.0,0.04
1614455818.1869931,328,1614455818,163995027,base_imu_link,0.07986100965536916,0.07550949987401095,-0.598122494747971,0.7938324860082668,0.0025,0.0,0.0,0.0,0.0025,0.0,0.0,0.0,0.0025,-0.15,-0.13,0.52,0.02,0.0,0.0,0.0,0.02,0.0,0.0,0.0,0.02,-1.4509815625,0.7036571093749999,9.987947265625,0.04,0.0,0.0,0.0,0.04,0.0,0.0,0.0,0.04
1614455818.2071733,329,1614455818,184268951,base_imu_link,0.07891954313241209,0.07264552706046068,-0.5944891962238229,0.796917140412372,0.0025,0.0,0.0,0.0,0.0025,0.0,0.0,0.0,0.0025,-0.12,0.03,0.51,0.02,0.0,0.0,0.0,0.02,0.0,0.0,0.0,0.02,-2.1163339843749998,-0.229828125,8.350421874999999,0.04,0.0,0.0,0.0,0.04,0.0,0.0,0.0,0.04
1614455818.2274992,330,1614455818,204461097,base_imu_link,0.07806769345165745,0.07638933593320678,-0.5912578339226934,0.7990521124556687,0.0025,0.0,0.0,0.0,0.0025,0.0,0.0,0.0,0.0025,-0.14,0.09,0.5,0.02,0.0,0.0,0.0,0.02,0.0,0.0,0.0,0.02,-3.0260703125,-0.124490234375,10.816094609375,0.04,0.0,0.0,0.0,0.04,0.0,0.0,0.0,0.04
1614455818.246863,331,1614455818,223982095,base_imu_link,0.07656914178953107,0.07788525533126633,-0.5884568041658025,0.8011177461263533,0.0025,0.0,0.0,0.0,0.0025,0.0,0.0,0.0,0.0025,-0.07,-0.24,0.46,0.02,0.0,0.0,0.0,0.02,0.0,0.0,0.0,0.02,-2.3702940624999997,0.522092890625,8.594805781249999,0.04,0.0,0.0,0.0,0.04,0.0,0.0,0.0,0.04
1614455818.267059,332,1614455818,243999004,base_imu_link,0.07930299087014638,0.08015318450527482,-0.5853058269736152,0.8029343631726352,0.0025,0.0,0.0,0.0,0.0025,0.0,0.0,0.0,0.0025,-0.09,0.11,0.48,0.02,0.0,0.0,0.0,0.02,0.0,0.0,0.0,0.02,-2.0109960937499998,0.06243664062499999,9.284290156249998,0.04,0.0,0.0,0.0,0.04,0.0,0.0,0.0,0.04
1614455818.287453,333,1614455818,264060020,base_imu_link,0.07782225299411738,0.0819466305603581,-0.5820423513864249,0.8052671282694244,0.0025,0.0,0.0,0.0,0.0025,0.0,0.0,0.0,0.0025,-0.16,0.06,0.48,0.02,0.0,0.0,0.0,0.02,0.0,0.0,0.0,0.02,-3.54318359375,0.17696765625,11.247022343749999,0.04,0.0,0.0,0.0,0.04,0.0,0.0,0.0,0.04
1614455818.307273,334,1614455818,284351110,base_imu_link,0.07774858994534009,0.08366103172446175,-0.5793114414710496,0.8070652032599624,0.0025,0.0,0.0,0.0,0.0025,0.0,0.0,0.0,0.0025,-0.11,-0.2,0.46,0.02,0.0,0.0,0.0,0.02,0.0,0.0,0.0,0.02,-2.173791015625,0.598702265625,9.0445028125,0.04,0.0,0.0,0.0,0.04,0.0,0.0,0.0,0.04
1614455818.326953,335,1614455818,304107904,base_imu_link,0.07948443632142663,0.08347241881874293,-0.575494316460994,0.809642434288314,0.0025,0.0,0.0,0.0,0.0025,0.0,0.0,0.0,0.0025,-0.07,0.01,0.5,0.02,0.0,0.0,0.0,0.02,0.0,0.0,0.0,0.02,-2.6621757812499998,0.11989367187499998,9.202701171874999,0.04,0.0,0.0,0.0,0.04,0.0,0.0,0.0,0.04
1614455818.3477724,336,1614455818,324657917,base_imu_link,0.07932603124888217,0.08736286185241604,-0.5725414638975262,0.8113392528735034,0.0025,0.0,0.0,0.0,0.0025,0.0,0.0,0.0,0.0025,-0.2,0.02,0.46,0.02,0.0,0.0,0.0,0.02,0.0,0.0,0.0,0.02,-3.0452226562499995,0.32099328125,11.156240234375,0.04,0.0,0.0,0.0,0.04,0.0,0.0,0.0,0.04
1614455818.3670747,337,1614455818,344082117,base_imu_link,0.07883773327498014,0.08650081301447993,-0.5696665450727583,0.813499999130156,0.0025,0.0,0.0,0.0,0.0025,0.0,0.0,0.0,0.0025,-0.06,-0.27,0.46,0.02,0.0,0.0,0.0,0.02,0.0,0.0,0.0,0.02,-1.771591796875,1.54674328125,8.427031249999999,0.04,0.0,0.0,0.0,0.04,0.0,0.0,0.0,0.04
1614455818.3871188,338,1614455818,364041090,base_imu_link,0.08236266092357022,0.08391922827966536,-0.5666801811335221,0.815504461987188,0.0025,0.0,0.0,0.0,0.0025,0.0,0.0,0.0,0.0025,-0.16,0.04,0.46,0.02,0.0,0.0,0.0,0.02,0.0,0.0,0.0,0.02,-2.58556640625,0.014555781249999998,9.7247940625,0.04,0.0,0.0,0.0,0.04,0.0,0.0,0.0,0.04
1614455818.4119337,339,1614455818,384329080,base_imu_link,0.08062862346141936,0.08676932563889277,-0.5638893004083848,0.8173120371631821,0.0025,0.0,0.0,0.0,0.0025,0.0,0.0,0.0,0.0025,-0.19,-0.04,0.49,0.02,0.0,0.0,0.0,0.02,0.0,0.0,0.0,0.02,-2.6859246875,-0.10533789062499999,11.003021484375,0.04,0.0,0.0,0.0,0.04,0.0,0.0,0.0,0.04
1614455818.4313571,340,1614455818,404318094,base_imu_link,0.07805988393660264,0.08701774789949894,-0.5612915430446161,0.819320675789948,0.0025,0.0,0.0,0.0,0.0025,0.0,0.0,0.0,0.0025,-0.13,-0.18,0.49,0.02,0.0,0.0,0.0,0.02,0.0,0.0,0.0,0.02,-1.5800683593749998,1.1682929687499999,8.8146746875,0.04,0.0,0.0,0.0,0.04,0.0,0.0,0.0,0.04
1614455818.4475794,341,1614455818,424349069,base_imu_link,0.0800654261283422,0.08333186674735575,-0.558032694560321,0.8217328272163863,0.0025,0.0,0.0,0.0,0.0025,0.0,0.0,0.0,0.0025,-0.08,-0.02,0.49,0.02,0.0,0.0,0.0,0.02,0.0,0.0,0.0,0.02,-2.3078574218749996,-0.067033203125,9.1211121875,0.04,0.0,0.0,0.0,0.04,0.0,0.0,0.0,0.04
1614455818.4679735,342,1614455818,444339036,base_imu_link,0.07797878727045024,0.08576114523117995,-0.5548937833998328,0.8238065451601401,0.0025,0.0,0.0,0.0,0.0025,0.0,0.0,0.0,0.0025,-0.17,-0.04,0.52,0.02,0.0,0.0,0.0,0.02,0.0,0.0,0.0,0.02,-1.5896445312499998,-0.31601367187499996,10.356438359375,0.04,0.0,0.0,0.0,0.04,0.0,0.0,0.0,0.04
1614455818.488696,343,1614455818,464498996,base_imu_link,0.07239586016228053,0.08392338675678428,-0.5523986757029009,0.8261787988494476,0.0025,0.0,0.0,0.0,0.0025,0.0,0.0,0.0,0.0025,-0.13,-0.14,0.49,0.02,0.0,0.0,0.0,0.02,0.0,0.0,0.0,0.02,-1.719114375,0.9097363281249999,9.67193359375,0.04,0.0,0.0,0.0,0.04,0.0,0.0,0.0,0.04
1614455818.507473,344,1614455818,484368085,base_imu_link,0.07381186100963064,0.08002521335452567,-0.5497938449839581,0.8281754055872541,0.0025,0.0,0.0,0.0,0.0025,0.0,0.0,0.0,0.0025,-0.06,-0.07,0.44,0.02,0.0,0.0,0.0,0.02,0.0,0.0,0.0,0.02,-1.73826671875,0.5266894531249999,8.44618359375,0.04,0.0,0.0,0.0,0.04,0.0,0.0,0.0,0.04
1614455818.5277421,345,1614455818,504712104,base_imu_link,0.07414114094082754,0.08082511396346284,-0.5465235711346386,0.8302303164586483,0.0025,0.0,0.0,0.0,0.0025,0.0,0.0,0.0,0.0025,-0.16,0.09,0.45,0.02,0.0,0.0,0.0,0.02,0.0,0.0,0.0,0.02,-3.2225733593749997,-0.21565539062499997,10.892703984374998,0.04,0.0,0.0,0.0,0.04,0.0,0.0,0.0,0.04
1614455818.5537298,346,1614455818,524301052,base_imu_link,0.07188975771837121,0.08235506198543228,-0.5440759779029062,0.8318839082285255,0.0025,0.0,0.0,0.0,0.0025,0.0,0.0,0.0,0.0025,-0.12,-0.32,0.47,0.02,0.0,0.0,0.0,0.02,0.0,0.0,0.0,0.02,-1.73826671875,0.28728515624999995,8.642303593749999,0.04,0.0,0.0,0.0,0.04,0.0,0.0,0.0,0.04
1614455818.565036,347,1614455818,542068004,base_imu_link,0.0714202326584244,0.08273112368763962,-0.540790559600294,0.8340265476515708,0.0025,0.0,0.0,0.0,0.0025,0.0,0.0,0.0,0.0025,-0.13,0.04,0.48,0.02,0.0,0.0,0.0,0.02,0.0,0.0,0.0,0.02,-2.12131359375,-0.6032988281249999,10.586266484374999,0.04,0.0,0.0,0.0,0.04,0.0,0.0,0.0,0.04
1614455818.5879257,348,1614455818,564636945,base_imu_link,0.0677072896187966,0.08558884647819118,-0.5378563153181358,0.8359430939743487,0.0025,0.0,0.0,0.0,0.0025,0.0,0.0,0.0,0.0025,-0.15,0.08,0.49,0.02,0.0,0.0,0.0,0.02,0.0,0.0,0.0,0.02,-2.24082421875,0.6320273437499999,10.16989453125,0.04,0.0,0.0,0.0,0.04,0.0,0.0,0.0,0.04
1614455818.6107824,349,1614455818,584353923,base_imu_link,0.0692773203170538,0.08309951521892173,-0.5346044969731676,0.8381486474821367,0.0025,0.0,0.0,0.0,0.0025,0.0,0.0,0.0,0.0025,0.02,-0.16,0.5,0.02,0.0,0.0,0.0,0.02,0.0,0.0,0.0,0.02,-2.49440125,0.6174715625,8.010276249999999,0.04,0.0,0.0,0.0,0.04,0.0,0.0,0.0,0.04
1614455818.62744,350,1614455818,604481935,base_imu_link,0.0708218474882635,0.08548041255183582,-0.5307849073325785,0.840205181569516,0.0025,0.0,0.0,0.0,0.0025,0.0,0.0,0.0,0.0025,-0.21,-0.02,0.49,0.02,0.0,0.0,0.0,0.02,0.0,0.0,0.0,0.02,-2.8536992187499997,-0.04290125,11.060478515624999,0.04,0.0,0.0,0.0,0.04,0.0,0.0,0.0,0.04
1614455818.6476333,351,1614455818,624608039,base_imu_link,0.06958442831175725,0.08815752651616968,-0.5275922651072209,0.8420407707790096,0.0025,0.0,0.0,0.0,0.0025,0.0,0.0,0.0,0.0025,-0.18,-0.01,0.5,0.02,0.0,0.0,0.0,0.02,0.0,0.0,0.0,0.02,-1.594624140625,0.9434444531249999,9.16937609375,0.04,0.0,0.0,0.0,0.04,0.0,0.0,0.0,0.04
1614455818.6673462,352,1614455818,644553899,base_imu_link,0.07109083425115234,0.08423683151248236,-0.5237827595515797,0.8446903990804826,0.0025,0.0,0.0,0.0,0.0025,0.0,0.0,0.0,0.0025,-0.07,-0.06,0.53,0.02,0.0,0.0,0.0,0.02,0.0,0.0,0.0,0.02,-1.89148546875,0.483788203125,8.091865234375,0.04,0.0,0.0,0.0,0.04,0.0,0.0,0.0,0.04
1614455818.685327,353,1614455818,662309885,base_imu_link,0.07195880389507439,0.08500147812375783,-0.5204092634743716,0.8466232206529825,0.0025,0.0,0.0,0.0,0.0025,0.0,0.0,0.0,0.0025,-0.12,0.03,0.52,0.02,0.0,0.0,0.0,0.02,0.0,0.0,0.0,0.02,-3.35166015625,-0.392623046875,10.682028203124998,0.04,0.0,0.0,0.0,0.04,0.0,0.0,0.0,0.04
1614455818.708093,354,1614455818,684650897,base_imu_link,0.07043840564909545,0.08935626673840195,-0.5166777080110346,0.8485859029283088,0.0025,0.0,0.0,0.0,0.0025,0.0,0.0,0.0,0.0025,-0.14,-0.09,0.55,0.02,0.0,0.0,0.0,0.02,0.0,0.0,0.0,0.02,-1.73826671875,0.71323328125,9.71483484375,0.04,0.0,0.0,0.0,0.04,0.0,0.0,0.0,0.04
1614455818.7273123,355,1614455818,704421043,base_imu_link,0.07064301648282142,0.08534789839963114,-0.5136544844448113,0.8508139462131009,0.0025,0.0,0.0,0.0,0.0025,0.0,0.0,0.0,0.0025,-0.07,-0.13,0.51,0.02,0.0,0.0,0.0,0.02,0.0,0.0,0.0,0.02,-1.9248105468749999,0.19152343749999998,9.059058593749999,0.04,0.0,0.0,0.0,0.04,0.0,0.0,0.0,0.04
1614455818.7479808,356,1614455818,724984884,base_imu_link,0.06986825996094494,0.08588574287404857,-0.510338915206978,0.8528166608634985,0.0025,0.0,0.0,0.0,0.0025,0.0,0.0,0.0,0.0025,-0.11,0.01,0.53,0.02,0.0,0.0,0.0,0.02,0.0,0.0,0.0,0.02,-1.537167109375,0.05745703125,9.145244140625,0.04,0.0,0.0,0.0,0.04,0.0,0.0,0.0,0.04
1614455818.7674813,357,1614455818,744621992,base_imu_link,0.06727708067038965,0.0855796273415836,-0.5069135590711638,0.8550956469485455,0.0025,0.0,0.0,0.0,0.0025,0.0,0.0,0.0,0.0025,-0.17,0.03,0.53,0.02,0.0,0.0,0.0,0.02,0.0,0.0,0.0,0.02,-2.575990234375,0.181947265625,10.495484374999998,0.04,0.0,0.0,0.0,0.04,0.0,0.0,0.0,0.04
1614455818.787878,358,1614455818,764770984,base_imu_link,0.06638249167833511,0.08657068806948454,-0.5036112049340187,0.8570149561300885,0.0025,0.0,0.0,0.0,0.0025,0.0,0.0,0.0,0.0025,-0.14,-0.11,0.48,0.02,0.0,0.0,0.0,0.02,0.0,0.0,0.0,0.02,-1.8098964843749998,1.09168359375,9.509138671874998,0.04,0.0,0.0,0.0,0.04,0.0,0.0,0.0,0.04
1614455818.8053253,359,1614455818,782536983,base_imu_link,0.0690748607858634,0.08386941574400211,-0.5001920222610126,0.8590707337446736,0.0025,0.0,0.0,0.0,0.0025,0.0,0.0,0.0,0.0025,-0.13,0.01,0.52,0.02,0.0,0.0,0.0,0.02,0.0,0.0,0.0,0.02,-2.503977421875,-0.5125167187499999,8.94874109375,0.04,0.0,0.0,0.0,0.04,0.0,0.0,0.0,0.04
1614455818.828198,360,1614455818,805246114,base_imu_link,0.0668018910865584,0.08926306466736747,-0.496451814252694,0.8608746765695096,0.0025,0.0,0.0,0.0,0.0025,0.0,0.0,0.0,0.0025,-0.14,0.06,0.55,0.02,0.0,0.0,0.0,0.02,0.0,0.0,0.0,0.02,-3.246322265625,-0.067033203125,10.662875859375,0.04,0.0,0.0,0.0,0.04,0.0,0.0,0.0,0.04
1614455818.8476257,361,1614455818,824829101,base_imu_link,0.06627021076156721,0.09092380484448838,-0.4930895529637975,0.8626724834119732,0.0025,0.0,0.0,0.0,0.0025,0.0,0.0,0.0,0.0025,-0.06,-0.24,0.52,0.02,0.0,0.0,0.0,0.02,0.0,0.0,0.0,0.02,-1.5992207031249999,0.9338682812499999,9.126091796874999,0.04,0.0,0.0,0.0,0.04,0.0,0.0,0.0,0.04
1614455818.8680282,362,1614455818,845249891,base_imu_link,0.0687572541355843,0.0881825644584153,-0.48980751557605656,0.864629905227944,0.0025,0.0,0.0,0.0,0.0025,0.0,0.0,0.0,0.0025,-0.04,0.07,0.51,0.02,0.0,0.0,0.0,0.02,0.0,0.0,0.0,0.02,-2.5376855468749997,-0.32558984375,9.54246375,0.04,0.0,0.0,0.0,0.04,0.0,0.0,0.0,0.04
1614455818.8880692,363,1614455818,865205049,base_imu_link,0.06657538380744386,0.09325319418365907,-0.4862822026807555,0.8662569938542423,0.0025,0.0,0.0,0.0,0.0025,0.0,0.0,0.0,0.0025,-0.18,0.09,0.53,0.02,0.0,0.0,0.0,0.02,0.0,0.0,0.0,0.02,-2.5472617187499997,0.833126953125,10.538385625,0.04,0.0,0.0,0.0,0.04,0.0,0.0,0.0,0.04
