Time,header.seq,header.stamp.secs,header.stamp.nsecs,header.frame_id,orientation.x,orientation.y,orientation.z,orientation.w,orientation_covariance_0,orientation_covariance_1,orientation_covariance_2,orientation_covariance_3,orientation_covariance_4,orientation_covariance_5,orientation_covariance_6,orientation_covariance_7,orientation_covariance_8,angular_velocity.x,angular_velocity.y,angular_velocity.z,angular_velocity_covariance_0,angular_velocity_covariance_1,angular_velocity_covariance_2,angular_velocity_covariance_3,angular_velocity_covariance_4,angular_velocity_covariance_5,angular_velocity_covariance_6,angular_velocity_covariance_7,angular_velocity_covariance_8,linear_acceleration.x,linear_acceleration.y,linear_acceleration.z,linear_acceleration_covariance_0,linear_acceleration_covariance_1,linear_acceleration_covariance_2,linear_acceleration_covariance_3,linear_acceleration_covariance_4,linear_acceleration_covariance_5,linear_acceleration_covariance_6,linear_acceleration_covariance_7,linear_acceleration_covariance_8
1614727205.059785,2631,1614727205,59328079,base_imu_link,-0.07685556321325054,0.004615044820868115,0.6958459472086859,0.714052057988577,0.0025,0.0,0.0,0.0,0.0025,0.0,0.0,0.0,0.0025,-0.04,-0.05,0.25,0.02,0.0,0.0,0.0,0.02,0.0,0.0,0.0,0.02,-1.177869140625,-0.722809453125,9.834728515624999,0.04,0.0,0.0,0.0,0.04,0.0,0.0,0.0,0.04
1614727205.0798082,2632,1614727205,79463243,base_imu_link,-0.07629865153695635,0.005695546096572628,0.6977668958494971,0.7122270955143878,0.0025,0.0,0.0,0.0,0.0025,0.0,0.0,0.0,0.0025,-0.04,-0.05,0.31,0.02,0.0,0.0,0.0,0.02,0.0,0.0,0.0,0.02,-1.0296299999999998,-1.01047765625,9.767695312499999,0.04,0.0,0.0,0.0,0.04,0.0,0.0,0.0,0.04
1614727205.0999272,2633,1614727205,99529981,base_imu_link,-0.07625566838033065,0.005179965116635238,0.699693009014907,0.710343532480535,0.0025,0.0,0.0,0.0,0.0025,0.0,0.0,0.0,0.0025,-0.03,-0.04,0.31,0.02,0.0,0.0,0.0,0.02,0.0,0.0,0.0,0.02,-0.9817491406249998,-1.1349678906249998,9.719814453124998,0.04,0.0,0.0,0.0,0.04,0.0,0.0,0.0,0.04
1614727205.1201944,2634,1614727205,119581222,base_imu_link,-0.07658125262964277,0.004193936012546709,0.7014313981463292,0.7085984168348696,0.0025,0.0,0.0,0.0,0.0025,0.0,0.0,0.0,0.0025,-0.02,-0.03,0.31,0.02,0.0,0.0,0.0,0.02,0.0,0.0,0.0,0.02,-1.01047765625,-0.995921875,9.758119140624999,0.04,0.0,0.0,0.0,0.04,0.0,0.0,0.0,0.04
1614727205.141715,2635,1614727205,141289234,base_imu_link,-0.07628358052328355,0.004300297806175385,0.7032822891669911,0.7067929997710523,0.0025,0.0,0.0,0.0,0.0025,0.0,0.0,0.0,0.0025,0.01,-0.02,0.32,0.02,0.0,0.0,0.0,0.02,0.0,0.0,0.0,0.02,-0.9721729687499999,-1.120412109375,9.810596562499999,0.04,0.0,0.0,0.0,0.04,0.0,0.0,0.0,0.04
1614727205.1619809,2636,1614727205,161572456,base_imu_link,-0.07598835631068016,0.003914600040595191,0.7051311574116423,0.7049826213879609,0.0025,0.0,0.0,0.0,0.0025,0.0,0.0,0.0,0.0025,0.04,-0.02,0.28,0.02,0.0,0.0,0.0,0.02,0.0,0.0,0.0,0.02,-0.8668350781249999,-1.388544921875,9.733987187499999,0.04,0.0,0.0,0.0,0.04,0.0,0.0,0.0,0.04
1614727205.1819763,2637,1614727205,181593656,base_imu_link,-0.07648515440475696,0.0023749580396417655,0.7056909421703113,0.704375379232387,0.0025,0.0,0.0,0.0,0.0025,0.0,0.0,0.0,0.0025,0.05,-0.01,0.21,0.02,0.0,0.0,0.0,0.02,0.0,0.0,0.0,0.02,-0.9051397656249999,-1.259458125,9.7247940625,0.04,0.0,0.0,0.0,0.04,0.0,0.0,0.0,0.04
1614727205.2022123,2638,1614727205,201827764,base_imu_link,-0.07667275701928314,0.001356059186233445,0.706553289956977,0.7034926423819352,0.0025,0.0,0.0,0.0,0.0025,0.0,0.0,0.0,0.0025,0.04,-0.01,0.2,0.02,0.0,0.0,0.0,0.02,0.0,0.0,0.0,0.02,-0.9530206249999998,-1.139564453125,9.729390624999999,0.04,0.0,0.0,0.0,0.04,0.0,0.0,0.0,0.04
1614727205.2219734,2639,1614727205,221590518,base_imu_link,-0.07661255189376315,0.0011040345755918696,0.7071672495888721,0.7028824788745919,0.0025,0.0,0.0,0.0,0.0025,0.0,0.0,0.0,0.0025,0.04,-0.01,0.18,0.02,0.0,0.0,0.0,0.02,0.0,0.0,0.0,0.02,-0.9530206249999998,-1.1682929687499999,9.76309875,0.04,0.0,0.0,0.0,0.04,0.0,0.0,0.0,0.04
1614727205.2420027,2640,1614727205,241621971,base_imu_link,-0.07661331791656797,0.0007836648551748163,0.7078419870474556,0.7022033229485026,0.0025,0.0,0.0,0.0,0.0025,0.0,0.0,0.0,0.0025,0.04,-0.01,0.16,0.02,0.0,0.0,0.0,0.02,0.0,0.0,0.0,0.02,-0.9530206249999998,-1.177869140625,9.75313953125,0.04,0.0,0.0,0.0,0.04,0.0,0.0,0.0,0.04
1614727205.2620306,2641,1614727205,261632204,base_imu_link,-0.07667415447194958,0.00020147644302451195,0.7080875101902933,0.70194950769679,0.0025,0.0,0.0,0.0,0.0025,0.0,0.0,0.0,0.0025,0.03,-0.02,0.14,0.02,0.0,0.0,0.0,0.02,0.0,0.0,0.0,0.02,-0.9625967968749999,-1.1541202343749999,9.772291874999999,0.04,0.0,0.0,0.0,0.04,0.0,0.0,0.0,0.04
1614727205.282055,2642,1614727205,281651496,base_imu_link,-0.07661232660898325,-0.0001403995786017076,0.7083938055964843,0.701647167664808,0.0025,0.0,0.0,0.0,0.0025,0.0,0.0,0.0,0.0025,0.03,-0.02,0.14,0.02,0.0,0.0,0.0,0.02,0.0,0.0,0.0,0.02,-1.07253125,-0.9434444531249999,9.772291874999999,0.04,0.0,0.0,0.0,0.04,0.0,0.0,0.0,0.04
1614727205.3021898,2643,1614727205,301747083,base_imu_link,-0.076246775997966,0.0006177072397062985,0.7093724005059819,0.7006973990161965,0.0025,0.0,0.0,0.0,0.0025,0.0,0.0,0.0,0.0025,0.03,-0.02,0.18,0.02,0.0,0.0,0.0,0.02,0.0,0.0,0.0,0.02,-1.0966632031249999,-0.9288886718749999,9.71483484375,0.04,0.0,0.0,0.0,0.04,0.0,0.0,0.0,0.04
1614727205.3224504,2644,1614727205,321986198,base_imu_link,-0.07600634553441343,0.001519574381660789,0.7101650803000513,0.699918770325974,0.0025,0.0,0.0,0.0,0.0025,0.0,0.0,0.0,0.0025,0.02,-0.03,0.19,0.02,0.0,0.0,0.0,0.02,0.0,0.0,0.0,0.02,-0.9767695312499999,-1.1445440624999998,9.71023828125,0.04,0.0,0.0,0.0,0.04,0.0,0.0,0.0,0.04
1614727205.3406093,2645,1614727205,340202331,base_imu_link,-0.07624915460760363,0.0007114922150315631,0.7107770158725901,0.6992721887131716,0.0025,0.0,0.0,0.0,0.0025,0.0,0.0,0.0,0.0025,-0.01,-0.03,0.15,0.02,0.0,0.0,0.0,0.02,0.0,0.0,0.0,0.02,-0.8955635937499998,-1.307338984375,9.681509765625,0.04,0.0,0.0,0.0,0.04,0.0,0.0,0.0,0.04
1614727205.3606932,2646,1614727205,360261440,base_imu_link,-0.07685202534832178,-0.0012797198645988841,0.7108990342572781,0.6990813197396984,0.0025,0.0,0.0,0.0,0.0025,0.0,0.0,0.0,0.0025,-0.03,-0.05,0.1,0.02,0.0,0.0,0.0,0.02,0.0,0.0,0.0,0.02,-0.9193125,-1.2161738281249999,9.686489374999999,0.04,0.0,0.0,0.0,0.04,0.0,0.0,0.0,0.04
1614727205.3808,2647,1614727205,380366563,base_imu_link,-0.07709003654576041,-0.0026385716373321932,0.7108959272072601,0.6990544648918409,0.0025,0.0,0.0,0.0,0.0025,0.0,0.0,0.0,0.0025,-0.03,-0.06,0.07,0.02,0.0,0.0,0.0,0.02,0.0,0.0,0.0,0.02,-0.9434444531249999,-1.2020010937499999,9.67653015625,0.04,0.0,0.0,0.0,0.04,0.0,0.0,0.0,0.04
1614727205.4008176,2648,1614727205,400408029,base_imu_link,-0.07726933489194679,-0.00366832897053887,0.7107087131309974,0.6992203646402197,0.0025,0.0,0.0,0.0,0.0025,0.0,0.0,0.0,0.0025,-0.02,-0.06,0.05,0.02,0.0,0.0,0.0,0.02,0.0,0.0,0.0,0.02,-1.000901484375,-1.1012597656249998,9.6956825,0.04,0.0,0.0,0.0,0.04,0.0,0.0,0.0,0.04
1614727205.4209733,2649,1614727205,420557498,base_imu_link,-0.07720697449568967,-0.00418967166582615,0.710400798161043,0.6995371582072732,0.0025,0.0,0.0,0.0,0.0025,0.0,0.0,0.0,0.0025,-0.02,-0.07,0.04,0.02,0.0,0.0,0.0,0.02,0.0,0.0,0.0,0.02,-0.9863457031249999,-1.1108359374999999,9.75313953125,0.04,0.0,0.0,0.0,0.04,0.0,0.0,0.0,0.04
1614727205.4409838,2650,1614727205,440503120,base_imu_link,-0.0769603871106592,-0.004778701166646644,0.710153079941929,0.6998120218172375,0.0025,0.0,0.0,0.0,0.0025,0.0,0.0,0.0,0.0025,-0.02,-0.09,0.02,0.02,0.0,0.0,0.0,0.02,0.0,0.0,0.0,0.02,-0.9767695312499999,-1.09168359375,9.772291874999999,0.04,0.0,0.0,0.0,0.04,0.0,0.0,0.0,0.04
1614727205.4610353,2651,1614727205,460532426,base_imu_link,-0.07640675167105358,-0.005551782303565393,0.7099035028063145,0.7001201344881155,0.0025,0.0,0.0,0.0,0.0025,0.0,0.0,0.0,0.0025,-0.03,-0.11,0.03,0.02,0.0,0.0,0.0,0.02,0.0,0.0,0.0,0.02,-1.000901484375,-0.9625967968749999,10.069153203125,0.04,0.0,0.0,0.0,0.04,0.0,0.0,0.0,0.04
1614727205.4828906,2652,1614727205,482424736,base_imu_link,-0.07444091686435828,-0.006044031967275362,0.7099616272503408,0.7002688822202657,0.0025,0.0,0.0,0.0,0.0025,0.0,0.0,0.0,0.0025,0.01,-0.21,0.04,0.02,0.0,0.0,0.0,0.02,0.0,0.0,0.0,0.02,-1.01047765625,-0.8476827343749999,10.4234715625,0.04,0.0,0.0,0.0,0.04,0.0,0.0,0.0,0.04
1614727205.5029073,2653,1614727205,502465009,base_imu_link,-0.07100051157872708,-0.006184322729926854,0.7102677104880827,0.7003145442913122,0.0025,0.0,0.0,0.0,0.0025,0.0,0.0,0.0,0.0025,0.1,-0.3,0.07,0.02,0.0,0.0,0.0,0.02,0.0,0.0,0.0,0.02,-0.967193359375,-0.8476827343749999,10.246503906249998,0.04,0.0,0.0,0.0,0.04,0.0,0.0,0.0,0.04
1614727205.5229092,2654,1614727205,522503614,base_imu_link,-0.06743335781710615,-0.006227009000866847,0.7108804760204568,0.700044938147075,0.0025,0.0,0.0,0.0,0.0025,0.0,0.0,0.0,0.0025,0.13,-0.31,0.1,0.02,0.0,0.0,0.0,0.02,0.0,0.0,0.0,0.02,-0.9193125,-0.9097363281249999,9.777271484375,0.04,0.0,0.0,0.0,0.04,0.0,0.0,0.0,0.04
1614727205.5428803,2655,1614727205,542452812,base_imu_link,-0.06497142892376778,-0.006376810429357869,0.71130833481161,0.6998417696450293,0.0025,0.0,0.0,0.0,0.0025,0.0,0.0,0.0,0.0025,0.11,-0.26,0.1,0.02,0.0,0.0,0.0,0.02,0.0,0.0,0.0,0.02,-0.7948222656249999,-1.062955078125,9.475813593749999,0.04,0.0,0.0,0.0,0.04,0.0,0.0,0.0,0.04
1614727205.563018,2656,1614727205,562527179,base_imu_link,-0.06373674495171722,-0.007120971544697919,0.7114245102061748,0.6998300403563167,0.0025,0.0,0.0,0.0,0.0025,0.0,0.0,0.0,0.0025,0.1,-0.18,0.06,0.02,0.0,0.0,0.0,0.02,0.0,0.0,0.0,0.02,-0.6894843749999999,-1.1349678906249998,9.36549609375,0.04,0.0,0.0,0.0,0.04,0.0,0.0,0.0,0.04
1614727205.583092,2657,1614727205,582658052,base_imu_link,-0.06323913723164334,-0.007869391684203794,0.7115394943911916,0.6997502641073067,0.0025,0.0,0.0,0.0,0.0025,0.0,0.0,0.0,0.0025,0.09,-0.09,0.03,0.02,0.0,0.0,0.0,0.02,0.0,0.0,0.0,0.02,-0.65577625,-1.09168359375,9.346343749999999,0.04,0.0,0.0,0.0,0.04,0.0,0.0,0.0,0.04
1614727205.6031442,2658,1614727205,602674245,base_imu_link,-0.06330145955224817,-0.00827407620606396,0.7112293774386506,0.7000551675044766,0.0025,0.0,0.0,0.0,0.0025,0.0,0.0,0.0,0.0025,0.06,-0.03,0.01,0.02,0.0,0.0,0.0,0.02,0.0,0.0,0.0,0.02,-0.6320273437499999,-1.07253125,9.437508906249999,0.04,0.0,0.0,0.0,0.04,0.0,0.0,0.0,0.04
1614727205.6232364,2659,1614727205,622809171,base_imu_link,-0.06361236201785597,-0.008781254803706565,0.7106727721328993,0.7005858747587778,0.0025,0.0,0.0,0.0,0.0025,0.0,0.0,0.0,0.0025,0.01,0.01,-0.01,0.02,0.0,0.0,0.0,0.02,0.0,0.0,0.0,0.02,-0.63662390625,-1.0438027343749998,9.5807684375,0.04,0.0,0.0,0.0,0.04,0.0,0.0,0.0,0.04
1614727205.6415796,2660,1614727205,641163587,base_imu_link,-0.06398527159127541,-0.009349913747740295,0.7101145219616264,0.7011104262749995,0.0025,0.0,0.0,0.0,0.0025,0.0,0.0,0.0,0.0025,-0.03,0.01,-0.02,0.02,0.0,0.0,0.0,0.02,0.0,0.0,0.0,0.02,-0.67033203125,-0.9913253124999999,9.71023828125,0.04,0.0,0.0,0.0,0.04,0.0,0.0,0.0,0.04
1614727205.663352,2661,1614727205,662880659,base_imu_link,-0.0641720051561587,-0.00975462434767077,0.7098027985086377,0.7014034418844691,0.0025,0.0,0.0,0.0,0.0025,0.0,0.0,0.0,0.0025,-0.04,-0.01,-0.01,0.02,0.0,0.0,0.0,0.02,0.0,0.0,0.0,0.02,-0.6940809375,-1.000901484375,9.815576171875,0.04,0.0,0.0,0.0,0.04,0.0,0.0,0.0,0.04
1614727205.6834097,2662,1614727205,682912111,base_imu_link,-0.06417496304678208,-0.010096826336861573,0.7094916135532805,0.7017131027089561,0.0025,0.0,0.0,0.0,0.0025,0.0,0.0,0.0,0.0025,-0.03,-0.02,-0.0,0.02,0.0,0.0,0.0,0.02,0.0,0.0,0.0,0.02,-0.7710733593749999,-0.9051397656249999,9.78684765625,0.04,0.0,0.0,0.0,0.04,0.0,0.0,0.0,0.04
1614727205.701623,2663,1614727205,701197862,base_imu_link,-0.06423960773985238,-0.009653925031439345,0.7093750110875561,0.70183129609148,0.0025,0.0,0.0,0.0,0.0025,0.0,0.0,0.0,0.0025,-0.02,-0.02,0.03,0.02,0.0,0.0,0.0,0.02,0.0,0.0,0.0,0.02,-0.7902257031249998,-0.8572589062499999,9.815576171875,0.04,0.0,0.0,0.0,0.04,0.0,0.0,0.0,0.04
1614727205.7216465,2664,1614727205,721227884,base_imu_link,-0.06393036382079245,-0.008884264000537968,0.7097527544968442,0.701487709029212,0.0025,0.0,0.0,0.0,0.0025,0.0,0.0,0.0,0.0025,-0.0,-0.02,0.07,0.02,0.0,0.0,0.0,0.02,0.0,0.0,0.0,0.02,-0.8381065624999999,-0.7277890625,9.758119140624999,0.04,0.0,0.0,0.0,0.04,0.0,0.0,0.0,0.04
1614727205.7417169,2665,1614727205,741298437,base_imu_link,-0.06331115439023903,-0.007725213693040689,0.7106235349930972,0.7006755385462566,0.0025,0.0,0.0,0.0,0.0025,0.0,0.0,0.0,0.0025,-0.01,-0.04,0.14,0.02,0.0,0.0,0.0,0.02,0.0,0.0,0.0,0.02,-0.8668350781249999,-0.684504765625,9.8014034375,0.04,0.0,0.0,0.0,0.04,0.0,0.0,0.0,0.04
1614727205.7619214,2666,1614727205,761514902,base_imu_link,-0.06256488384123743,-0.0072081989850647545,0.7117909572771712,0.699562227622227,0.0025,0.0,0.0,0.0,0.0025,0.0,0.0,0.0,0.0025,-0.06,-0.11,0.2,0.02,0.0,0.0,0.0,0.02,0.0,0.0,0.0,0.02,-0.9530206249999998,-0.59372265625,9.8443046875,0.04,0.0,0.0,0.0,0.04,0.0,0.0,0.0,0.04
1614727205.7818658,2667,1614727205,781428575,base_imu_link,-0.061685105385096764,-0.007138660818955221,0.7138665260559303,0.6975231682691115,0.0025,0.0,0.0,0.0,0.0025,0.0,0.0,0.0,0.0025,-0.12,-0.2,0.31,0.02,0.0,0.0,0.0,0.02,0.0,0.0,0.0,0.02,-0.9193125,-0.507537109375,9.8780128125,0.04,0.0,0.0,0.0,0.04,0.0,0.0,0.0,0.04
1614727205.8019133,2668,1614727205,801508426,base_imu_link,-0.05973715880346925,-0.00795710071974343,0.7171426016470236,0.6943159549579452,0.0025,0.0,0.0,0.0,0.0025,0.0,0.0,0.0,0.0025,-0.16,-0.33,0.44,0.02,0.0,0.0,0.0,0.02,0.0,0.0,0.0,0.02,-0.7948222656249999,-0.598702265625,9.949642578125,0.04,0.0,0.0,0.0,0.04,0.0,0.0,0.0,0.04
1614727205.82203,2669,1614727205,821537971,base_imu_link,-0.05607193792467288,-0.010380421336113558,0.7217738889176221,0.6897757881420519,0.0025,0.0,0.0,0.0,0.0025,0.0,0.0,0.0,0.0025,-0.1,-0.52,0.64,0.02,0.0,0.0,0.0,0.02,0.0,0.0,0.0,0.02,-0.6511796875,-0.45008007812499995,10.318133671875,0.04,0.0,0.0,0.0,0.04,0.0,0.0,0.0,0.04
1614727205.8419185,2670,1614727205,841479539,base_imu_link,-0.050813135964325275,-0.01308227228773412,0.7272046892575142,0.6844123167266518,0.0025,0.0,0.0,0.0,0.0025,0.0,0.0,0.0,0.0025,-0.08,-0.63,0.76,0.02,0.0,0.0,0.0,0.02,0.0,0.0,0.0,0.02,-0.5412452343749999,-0.6270477343749999,9.925510625,0.04,0.0,0.0,0.0,0.04,0.0,0.0,0.0,0.04
1614727205.8620071,2671,1614727205,861602067,base_imu_link,-0.045546316216533295,-0.017276512805651085,0.7339163977636055,0.6774907942386176,0.0025,0.0,0.0,0.0,0.0025,0.0,0.0,0.0,0.0025,-0.08,-0.74,0.96,0.02,0.0,0.0,0.0,0.02,0.0,0.0,0.0,0.02,-0.560397578125,-0.5412452343749999,9.825152343749998,0.04,0.0,0.0,0.0,0.04,0.0,0.0,0.0,0.04
1614727205.881998,2672,1614727205,881590843,base_imu_link,-0.04086973910545966,-0.02102171662961596,0.741425994633498,0.6694589205747609,0.0025,0.0,0.0,0.0,0.0025,0.0,0.0,0.0,0.0025,-0.13,-0.75,1.13,0.02,0.0,0.0,0.0,0.02,0.0,0.0,0.0,0.02,-0.48838476562499994,-0.4550596875,10.007099609374999,0.04,0.0,0.0,0.0,0.04,0.0,0.0,0.0,0.04
1614727205.903861,2673,1614727205,903448820,base_imu_link,-0.035303494359056,-0.02401352668203149,0.7502941108950801,0.6597240036397741,0.0025,0.0,0.0,0.0,0.0025,0.0,0.0,0.0,0.0025,-0.05,-0.79,1.31,0.02,0.0,0.0,0.0,0.02,0.0,0.0,0.0,0.02,-0.311417109375,-0.612875,10.155338749999999,0.04,0.0,0.0,0.0,0.04,0.0,0.0,0.0,0.04
1614727205.9238975,2674,1614727205,923463344,base_imu_link,-0.02911340970859351,-0.028024055779706788,0.759660908395685,0.6490626825879285,0.0025,0.0,0.0,0.0,0.0025,0.0,0.0,0.0,0.0025,0.01,-0.88,1.45,0.02,0.0,0.0,0.0,0.02,0.0,0.0,0.0,0.02,-0.023748906249999997,-1.106239375,10.050000859374999,0.04,0.0,0.0,0.0,0.04,0.0,0.0,0.0,0.04
1614727205.9422362,2675,1614727205,941833734,base_imu_link,-0.024011666692332352,-0.03459879339846773,0.7694002986208754,0.637377081357758,0.0025,0.0,0.0,0.0,0.0025,0.0,0.0,0.0,0.0025,-0.01,-0.9,1.58,0.02,0.0,0.0,0.0,0.02,0.0,0.0,0.0,0.02,0.10533789062499999,-1.058358515625,9.7247940625,0.04,0.0,0.0,0.0,0.04,0.0,0.0,0.0,0.04
1614727205.9623067,2676,1614727205,961888551,base_imu_link,-0.01907686169339402,-0.04092086586444229,0.7802142521433085,0.6238808194176938,0.0025,0.0,0.0,0.0,0.0025,0.0,0.0,0.0,0.0025,-0.01,-0.88,1.78,0.02,0.0,0.0,0.0,0.02,0.0,0.0,0.0,0.02,0.22523156249999998,-1.22575,9.700662109375,0.04,0.0,0.0,0.0,0.04,0.0,0.0,0.0,0.04
1614727205.9823544,2677,1614727205,981937170,base_imu_link,-0.015221624098091815,-0.047820110111310175,0.7912242678387287,0.6094634502673858,0.0025,0.0,0.0,0.0,0.0025,0.0,0.0,0.0,0.0025,-0.06,-0.86,1.91,0.02,0.0,0.0,0.0,0.02,0.0,0.0,0.0,0.02,0.368874140625,-1.259458125,9.810596562499999,0.04,0.0,0.0,0.0,0.04,0.0,0.0,0.0,0.04
1614727206.003959,2678,1614727206,3537654,base_imu_link,-0.011605586842878303,-0.054421758578694794,0.8023314444454835,0.5942792574213395,0.0025,0.0,0.0,0.0,0.0025,0.0,0.0,0.0,0.0025,-0.06,-0.82,1.97,0.02,0.0,0.0,0.0,0.02,0.0,0.0,0.0,0.02,0.41177539062499996,-1.0679346875,9.8014034375,0.04,0.0,0.0,0.0,0.04,0.0,0.0,0.0,0.04
1614727206.0242095,2679,1614727206,23800849,base_imu_link,-0.007160111854650313,-0.05869921238545604,0.8140647701314803,0.577755731511455,0.0025,0.0,0.0,0.0,0.0025,0.0,0.0,0.0,0.0025,0.03,-0.8,2.14,0.02,0.0,0.0,0.0,0.02,0.0,0.0,0.0,0.02,0.32099328125,-0.41177539062499996,10.13158984375,0.04,0.0,0.0,0.0,0.04,0.0,0.0,0.0,0.04
1614727206.044228,2680,1614727206,43819189,base_imu_link,-0.00053334196906199,-0.05894256631802319,0.8268461168433727,0.5593308399178658,0.0025,0.0,0.0,0.0,0.0025,0.0,0.0,0.0,0.0025,0.15,-0.84,2.42,0.02,0.0,0.0,0.0,0.02,0.0,0.0,0.0,0.02,0.28268859375,-0.42633117187499997,9.97377453125,0.04,0.0,0.0,0.0,0.04,0.0,0.0,0.0,0.04
1614727206.0625765,2681,1614727206,62165260,base_imu_link,0.005283143663131481,-0.05822454242033526,0.8401170091914707,0.5392452150183215,0.0025,0.0,0.0,0.0,0.0025,0.0,0.0,0.0,0.0025,0.22,-0.8,2.55,0.02,0.0,0.0,0.0,0.02,0.0,0.0,0.0,0.02,0.40219921875,-0.6940809375,9.882609375,0.04,0.0,0.0,0.0,0.04,0.0,0.0,0.0,0.04
1614727206.0843875,2682,1614727206,83880662,base_imu_link,0.010582156982109202,-0.05922173524559869,0.853741318924818,0.5172103676345039,0.0025,0.0,0.0,0.0,0.0025,0.0,0.0,0.0,0.0025,0.22,-0.83,2.78,0.02,0.0,0.0,0.0,0.02,0.0,0.0,0.0,0.02,0.35431835937499995,-0.292264765625,10.09788171875,0.04,0.0,0.0,0.0,0.04,0.0,0.0,0.0,0.04
1614727206.1027083,2683,1614727206,102299213,base_imu_link,0.016001719404455727,-0.05881505384849954,0.8679055330451783,0.4929753747667975,0.0025,0.0,0.0,0.0,0.0025,0.0,0.0,0.0,0.0025,0.17,-0.85,3.02,0.02,0.0,0.0,0.0,0.02,0.0,0.0,0.0,0.02,0.39760265625,-0.41177539062499996,9.863457031249999,0.04,0.0,0.0,0.0,0.04,0.0,0.0,0.0,0.04
1614727206.1229014,2684,1614727206,122352123,base_imu_link,0.01971379545332628,-0.05950627587716038,0.8814732308312261,0.46805481808012167,0.0025,0.0,0.0,0.0,0.0025,0.0,0.0,0.0,0.0025,0.06,-0.77,3.13,0.02,0.0,0.0,0.0,0.02,0.0,0.0,0.0,0.02,0.5841464843749999,-1.09168359375,9.733987187499999,0.04,0.0,0.0,0.0,0.04,0.0,0.0,0.0,0.04
1614727206.1427457,2685,1614727206,142345190,base_imu_link,0.021202450826493652,-0.0635314536249977,0.8944419853066309,0.4421399613244406,0.0025,0.0,0.0,0.0,0.0025,0.0,0.0,0.0,0.0025,0.02,-0.69,3.16,0.02,0.0,0.0,0.0,0.02,0.0,0.0,0.0,0.02,0.65577625,-0.890583984375,9.8780128125,0.04,0.0,0.0,0.0,0.04,0.0,0.0,0.0,0.04
1614727206.1646225,2686,1614727206,164181709,base_imu_link,0.023106508224449734,-0.06673532419248202,0.9073756081981934,0.4143452563135681,0.0025,0.0,0.0,0.0,0.0025,0.0,0.0,0.0,0.0025,-0.04,-0.69,3.37,0.02,0.0,0.0,0.0,0.02,0.0,0.0,0.0,0.02,0.34474218749999996,-0.229828125,9.86805359375,0.04,0.0,0.0,0.0,0.04,0.0,0.0,0.0,0.04
1614727206.1829214,2687,1614727206,182508230,base_imu_link,0.024590674385071346,-0.06649431767760701,0.9205235222113529,0.38420079321297806,0.0025,0.0,0.0,0.0,0.0025,0.0,0.0,0.0,0.0025,-0.1,-0.7,3.68,0.02,0.0,0.0,0.0,0.02,0.0,0.0,0.0,0.02,0.11989367187499998,-0.51711328125,9.432529296875,0.04,0.0,0.0,0.0,0.04,0.0,0.0,0.0,0.04
1614727206.2029994,2688,1614727206,202593803,base_imu_link,0.023994388613278277,-0.0675909248800544,0.9332442505010355,0.35200980823791583,0.0025,0.0,0.0,0.0,0.0025,0.0,0.0,0.0,0.0025,-0.14,-0.64,3.87,0.02,0.0,0.0,0.0,0.02,0.0,0.0,0.0,0.02,0.18654382812499998,-1.259458125,9.3417471875,0.04,0.0,0.0,0.0,0.04,0.0,0.0,0.0,0.04
1614727206.2231295,2689,1614727206,222649812,base_imu_link,0.02128532509858958,-0.07267779505837342,0.9450477091944852,0.31804040684660834,0.0025,0.0,0.0,0.0,0.0025,0.0,0.0,0.0,0.0025,-0.25,-0.58,4.02,0.02,0.0,0.0,0.0,0.02,0.0,0.0,0.0,0.02,0.28728515624999995,-1.8003203124999998,9.32719140625,0.04,0.0,0.0,0.0,0.04,0.0,0.0,0.0,0.04
1614727206.2430935,2690,1614727206,242643594,base_imu_link,0.01717011850021944,-0.08100951332199059,0.955600228363242,0.282791176195691,0.0025,0.0,0.0,0.0,0.0025,0.0,0.0,0.0,0.0025,-0.41,-0.51,4.18,0.02,0.0,0.0,0.0,0.02,0.0,0.0,0.0,0.02,0.028728515625,-1.8052999218749999,9.4612578125,0.04,0.0,0.0,0.0,0.04,0.0,0.0,0.0,0.04
1614727206.264962,2691,1614727206,264530658,base_imu_link,0.011114302959872126,-0.08713948692956763,0.9655003857546681,0.24513707837647747,0.0025,0.0,0.0,0.0,0.0025,0.0,0.0,0.0,0.0025,-0.38,-0.39,4.38,0.02,0.0,0.0,0.0,0.02,0.0,0.0,0.0,0.02,-0.229828125,-2.054280390625,9.566595703125,0.04,0.0,0.0,0.0,0.04,0.0,0.0,0.0,0.04
1614727206.2832906,2692,1614727206,282815217,base_imu_link,0.00352084349515807,-0.09198987093686659,0.974119431416961,0.2064383700817218,0.0025,0.0,0.0,0.0,0.0025,0.0,0.0,0.0,0.0025,-0.28,-0.32,4.5,0.02,0.0,0.0,0.0,0.02,0.0,0.0,0.0,0.02,-0.253960078125,-2.9398847656249996,9.48500671875,0.04,0.0,0.0,0.0,0.04,0.0,0.0,0.0,0.04
1614727206.3050368,2693,1614727206,304577827,base_imu_link,-0.005024160099720662,-0.10025181078222584,0.9804483902217036,0.16924918422801155,0.0025,0.0,0.0,0.0,0.0025,0.0,0.0,0.0,0.0025,-0.29,-0.22,4.39,0.02,0.0,0.0,0.0,0.02,0.0,0.0,0.0,0.02,0.023748906249999997,-4.304680781249999,9.557019531249999,0.04,0.0,0.0,0.0,0.04,0.0,0.0,0.0,0.04
1614727206.3250077,2694,1614727206,324588298,base_imu_link,-0.012450100143880122,-0.11203135955361539,0.9842934375695513,0.13586904813272066,0.0025,0.0,0.0,0.0,0.0025,0.0,0.0,0.0,0.0025,-0.21,-0.13,4.07,0.02,0.0,0.0,0.0,0.02,0.0,0.0,0.0,0.02,0.0720128125,-4.165634765625,9.892185546875,0.04,0.0,0.0,0.0,0.04,0.0,0.0,0.0,0.04
1614727206.345265,2695,1614727206,344804763,base_imu_link,-0.017831685851669977,-0.11987338435976543,0.987101075978824,0.10461294615520145,0.0025,0.0,0.0,0.0,0.0025,0.0,0.0,0.0,0.0025,-0.08,-0.16,3.86,0.02,0.0,0.0,0.0,0.02,0.0,0.0,0.0,0.02,0.01915234375,-3.2800303906249995,10.413895390625,0.04,0.0,0.0,0.0,0.04,0.0,0.0,0.0,0.04
1614727206.3650312,2696,1614727206,364609718,base_imu_link,-0.02093497451693465,-0.12208809064419192,0.9894892169930725,0.07461443841018399,0.0025,0.0,0.0,0.0,0.0025,0.0,0.0,0.0,0.0025,-0.01,-0.28,3.83,0.02,0.0,0.0,0.0,0.02,0.0,0.0,0.0,0.02,-0.32099328125,-2.690904296875,10.083708984374999,0.04,0.0,0.0,0.0,0.04,0.0,0.0,0.0,0.04
1614727206.3853512,2697,1614727206,384896039,base_imu_link,-0.024547872171764858,-0.1221031481764109,0.9911634600405487,0.04564229023280703,0.0025,0.0,0.0,0.0,0.0025,0.0,0.0,0.0,0.0025,-0.02,-0.3,3.78,0.02,0.0,0.0,0.0,0.02,0.0,0.0,0.0,0.02,-0.6894843749999999,-2.5568378906249998,9.355919921875,0.04,0.0,0.0,0.0,0.04,0.0,0.0,0.0,0.04
1614727206.4051678,2698,1614727206,404827833,base_imu_link,-0.029805912000598803,-0.1225341253373819,0.9918701972937601,0.01704427933509201,0.0025,0.0,0.0,0.0,0.0025,0.0,0.0,0.0,0.0025,-0.07,-0.26,3.73,0.02,0.0,0.0,0.0,0.02,0.0,0.0,0.0,0.02,-0.9863457031249999,-2.848719609375,8.680608281249999,0.04,0.0,0.0,0.0,0.04,0.0,0.0,0.0,0.04
1614727206.4253988,2699,1614727206,424743413,base_imu_link,0.03732724631896667,0.12481334694713146,-0.9914329138022955,0.009438354495802496,0.0025,0.0,0.0,0.0,0.0025,0.0,0.0,0.0,0.0025,-0.09,-0.07,3.58,0.02,0.0,0.0,0.0,0.02,0.0,0.0,0.0,0.02,-0.9625967968749999,-3.5144550781249997,8.254660156249999,0.04,0.0,0.0,0.0,0.04,0.0,0.0,0.0,0.04
1614727206.445357,2700,1614727206,444937944,base_imu_link,0.04512499781467687,0.13027966436001615,-0.9898781272672648,0.03364872634023308,0.0025,0.0,0.0,0.0,0.0025,0.0,0.0,0.0,0.0025,-0.13,0.06,3.39,0.02,0.0,0.0,0.0,0.02,0.0,0.0,0.0,0.02,-0.7660937499999999,-3.2846269531249996,9.0828075,0.04,0.0,0.0,0.0,0.04,0.0,0.0,0.0,0.04
1614727206.4652648,2701,1614727206,464817047,base_imu_link,0.05002656154043186,0.13467953567759502,-0.9880118690585851,0.05649170212934098,0.0025,0.0,0.0,0.0,0.0025,0.0,0.0,0.0,0.0025,-0.21,-0.02,3.34,0.02,0.0,0.0,0.0,0.02,0.0,0.0,0.0,0.02,-0.522092890625,-2.3078574218749996,10.13158984375,0.04,0.0,0.0,0.0,0.04,0.0,0.0,0.0,0.04
1614727206.485378,2702,1614727206,485002517,base_imu_link,0.05080131032511523,0.13183882998093194,-0.9867305289050591,0.08000383181606198,0.0025,0.0,0.0,0.0,0.0025,0.0,0.0,0.0,0.0025,-0.15,-0.26,3.42,0.02,0.0,0.0,0.0,0.02,0.0,0.0,0.0,0.02,-0.536265625,-1.719114375,10.069153203125,0.04,0.0,0.0,0.0,0.04,0.0,0.0,0.0,0.04
1614727206.5054564,2703,1614727206,505042791,base_imu_link,0.05060015186291166,0.12559692643051287,-0.985310496587574,0.10405893530594663,0.0025,0.0,0.0,0.0,0.0025,0.0,0.0,0.0,0.0025,-0.07,-0.34,3.51,0.02,0.0,0.0,0.0,0.02,0.0,0.0,0.0,0.02,-0.8427031249999999,-1.565895625,9.336767578124999,0.04,0.0,0.0,0.0,0.04,0.0,0.0,0.0,0.04
1614727206.5238883,2704,1614727206,523481130,base_imu_link,0.05287356937393494,0.11930365715284272,-0.9831528262805346,0.12799040287542557,0.0025,0.0,0.0,0.0,0.0025,0.0,0.0,0.0,0.0025,0.01,-0.25,3.56,0.02,0.0,0.0,0.0,0.02,0.0,0.0,0.0,0.02,-1.12998828125,-1.8003203124999998,8.838806640625,0.04,0.0,0.0,0.0,0.04,0.0,0.0,0.0,0.04
1614727206.5439537,2705,1614727206,543531179,base_imu_link,0.058152068380084604,0.11485123281676542,-0.9799926667475769,0.15179560067590883,0.0025,0.0,0.0,0.0,0.0025,0.0,0.0,0.0,0.0025,0.08,-0.05,3.58,0.02,0.0,0.0,0.0,0.02,0.0,0.0,0.0,0.02,-1.6949824218749998,-2.178770625,8.2738125,0.04,0.0,0.0,0.0,0.04,0.0,0.0,0.0,0.04
1614727206.5655417,2706,1614727206,565101385,base_imu_link,0.06733102931136782,0.11291141311763236,-0.9759210712167353,0.1740563358077798,0.0025,0.0,0.0,0.0,0.0025,0.0,0.0,0.0,0.0025,0.13,0.2,3.48,0.02,0.0,0.0,0.0,0.02,0.0,0.0,0.0,0.02,-1.7045585937499999,-2.59016296875,8.87213171875,0.04,0.0,0.0,0.0,0.04,0.0,0.0,0.0,0.04
1614727206.5857527,2707,1614727206,585361957,base_imu_link,0.07591935030556068,0.11197545576419936,-0.971090892258169,0.1966728972909443,0.0025,0.0,0.0,0.0,0.0025,0.0,0.0,0.0,0.0025,0.21,0.3,3.44,0.02,0.0,0.0,0.0,0.02,0.0,0.0,0.0,0.02,-1.5417636718749999,-2.092585078125,9.451681640624999,0.04,0.0,0.0,0.0,0.04,0.0,0.0,0.0,0.04
1614727206.6058867,2708,1614727206,605432987,base_imu_link,0.08178333345964116,0.10780994412727449,-0.9664163571681514,0.2184672215993579,0.0025,0.0,0.0,0.0,0.0025,0.0,0.0,0.0,0.0025,0.23,0.22,3.37,0.02,0.0,0.0,0.0,0.02,0.0,0.0,0.0,0.02,-1.3215117187499998,-2.226651484375,10.26565625,0.04,0.0,0.0,0.0,0.04,0.0,0.0,0.0,0.04
1614727206.6258752,2709,1614727206,625419616,base_imu_link,0.08296787229526398,0.10420813888121272,-0.9615364942403667,0.24021774747436136,0.0025,0.0,0.0,0.0,0.0025,0.0,0.0,0.0,0.0025,0.14,0.04,3.14,0.02,0.0,0.0,0.0,0.02,0.0,0.0,0.0,0.02,-1.3310878906249999,-2.772110234375,10.01207921875,0.04,0.0,0.0,0.0,0.04,0.0,0.0,0.0,0.04
1614727206.6458797,2710,1614727206,645434617,base_imu_link,0.08286472608831771,0.10380782777165368,-0.956946831650729,0.25808939043918483,0.0025,0.0,0.0,0.0,0.0025,0.0,0.0,0.0,0.0025,0.18,0.04,2.74,0.02,0.0,0.0,0.0,0.02,0.0,0.0,0.0,0.02,-1.766995234375,-2.8295672656249997,9.1977215625,0.04,0.0,0.0,0.0,0.04,0.0,0.0,0.0,0.04
1614727206.6659343,2711,1614727206,665499687,base_imu_link,0.08584020864924928,0.10708884789836971,-0.951966322433821,0.2737216801546411,0.0025,0.0,0.0,0.0,0.0025,0.0,0.0,0.0,0.0025,0.13,0.23,2.43,0.02,0.0,0.0,0.0,0.02,0.0,0.0,0.0,0.02,-1.9631152343749998,-1.9585186718749998,8.91043640625,0.04,0.0,0.0,0.0,0.04,0.0,0.0,0.0,0.04
1614727206.6859772,2712,1614727206,685490131,base_imu_link,0.09179030073130962,0.10774025467681818,-0.9460189425444918,0.29157287006995636,0.0025,0.0,0.0,0.0,0.0025,0.0,0.0,0.0,0.0025,0.03,0.39,2.34,0.02,0.0,0.0,0.0,0.02,0.0,0.0,0.0,0.02,-2.0351280468749997,-1.1349678906249998,9.17397265625,0.04,0.0,0.0,0.0,0.04,0.0,0.0,0.0,0.04
1614727206.7061586,2713,1614727206,705719470,base_imu_link,0.09836912562543793,0.10543748485476459,-0.9398334403944647,0.30970882491057977,0.0025,0.0,0.0,0.0,0.0025,0.0,0.0,0.0,0.0025,-0.04,0.44,2.31,0.02,0.0,0.0,0.0,0.02,0.0,0.0,0.0,0.02,-2.00639953125,-1.407697265625,9.599920781249999,0.04,0.0,0.0,0.0,0.04,0.0,0.0,0.0,0.04
1614727206.726282,2714,1614727206,725797653,base_imu_link,0.10213818862306434,0.10457990214367881,-0.9335520416851029,0.32727881073786924,0.0025,0.0,0.0,0.0,0.0025,0.0,0.0,0.0,0.0025,-0.08,0.39,2.16,0.02,0.0,0.0,0.0,0.02,0.0,0.0,0.0,0.02,-1.996823359375,-1.6279492187499998,9.71023828125,0.04,0.0,0.0,0.0,0.04,0.0,0.0,0.0,0.04
1614727206.7462432,2715,1614727206,745797395,base_imu_link,0.10389187257212841,0.10507156016601069,-0.9270181425055927,0.3446792850219139,0.0025,0.0,0.0,0.0,0.0025,0.0,0.0,0.0,0.0025,-0.1,0.31,2.02,0.02,0.0,0.0,0.0,0.02,0.0,0.0,0.0,0.02,-2.1833671875,-1.01507421875,9.40839734375,0.04,0.0,0.0,0.0,0.04,0.0,0.0,0.0,0.04
1614727206.766512,2716,1614727206,766033411,base_imu_link,0.10697592572762586,0.10344754874242579,-0.9202331173655065,0.361974813595729,0.0025,0.0,0.0,0.0,0.0025,0.0,0.0,0.0,0.0025,-0.1,0.29,1.97,0.02,0.0,0.0,0.0,0.02,0.0,0.0,0.0,0.02,-2.4227714843749997,-0.416755,9.135667968749999,0.04,0.0,0.0,0.0,0.04,0.0,0.0,0.0,0.04
1614727206.7863138,2717,1614727206,785865545,base_imu_link,0.11159609448373883,0.10043408902291737,-0.9122485470529011,0.381132383638525,0.0025,0.0,0.0,0.0,0.0025,0.0,0.0,0.0,0.0025,-0.13,0.27,2.0,0.02,0.0,0.0,0.0,0.02,0.0,0.0,0.0,0.02,-2.5568378906249998,-0.24438390624999998,9.188528437499999,0.04,0.0,0.0,0.0,0.04,0.0,0.0,0.0,0.04
1614727206.8062787,2718,1614727206,805827617,base_imu_link,0.11567823095435661,0.09738036976927567,-0.9032184090778842,0.40166169343078467,0.0025,0.0,0.0,0.0,0.0025,0.0,0.0,0.0,0.0025,-0.15,0.21,2.01,0.02,0.0,0.0,0.0,0.02,0.0,0.0,0.0,0.02,-2.66677234375,-0.34474218749999996,9.37009265625,0.04,0.0,0.0,0.0,0.04,0.0,0.0,0.0,0.04
1614727206.8265805,2719,1614727206,826115846,base_imu_link,0.1183975020384835,0.09470174330189385,-0.8941040338500454,0.42141616957552336,0.0025,0.0,0.0,0.0,0.0025,0.0,0.0,0.0,0.0025,-0.12,0.13,1.91,0.02,0.0,0.0,0.0,0.02,0.0,0.0,0.0,0.02,-2.78168640625,-1.0342265625,9.3846484375,0.04,0.0,0.0,0.0,0.04,0.0,0.0,0.0,0.04
1614727206.846638,2720,1614727206,846165418,base_imu_link,0.11907923676311295,0.09564085272990466,-0.8851827080104434,0.4394593679742292,0.0025,0.0,0.0,0.0,0.0025,0.0,0.0,0.0,0.0025,-0.07,0.06,1.72,0.02,0.0,0.0,0.0,0.02,0.0,0.0,0.0,0.02,-2.925328984375,-1.1587167968749998,9.28888671875,0.04,0.0,0.0,0.0,0.04,0.0,0.0,0.0,0.04
1614727206.866638,2721,1614727206,866188287,base_imu_link,0.11980042942938239,0.09758172678709762,-0.8761339429433008,0.4566344026991493,0.0025,0.0,0.0,0.0,0.0025,0.0,0.0,0.0,0.0025,-0.03,0.06,1.58,0.02,0.0,0.0,0.0,0.02,0.0,0.0,0.0,0.02,-3.00691796875,-0.55082140625,9.164396484374999,0.04,0.0,0.0,0.0,0.04,0.0,0.0,0.0,0.04
1614727206.8849902,2722,1614727206,884543895,base_imu_link,0.12257826408966026,0.09662488723922259,-0.8667216995546709,0.47374222511808667,0.0025,0.0,0.0,0.0,0.0025,0.0,0.0,0.0,0.0025,0.02,0.08,1.59,0.02,0.0,0.0,0.0,0.02,0.0,0.0,0.0,0.02,-3.1555401562499994,0.46923242187499997,9.1211121875,0.04,0.0,0.0,0.0,0.04,0.0,0.0,0.0,0.04
1614727206.9067898,2723,1614727206,906400203,base_imu_link,0.12841199964421326,0.09154965671457393,-0.8555856888878317,0.49305389935903854,0.0025,0.0,0.0,0.0,0.0025,0.0,0.0,0.0,0.0025,0.07,0.1,1.7,0.02,0.0,0.0,0.0,0.02,0.0,0.0,0.0,0.02,-3.3374874218749997,0.368874140625,9.063655156249999,0.04,0.0,0.0,0.0,0.04,0.0,0.0,0.0,0.04
1614727206.9252818,2724,1614727206,924617052,base_imu_link,0.13450232327093986,0.08786701872359615,-0.843616548157168,0.5123471789038477,0.0025,0.0,0.0,0.0,0.0025,0.0,0.0,0.0,0.0025,0.11,0.14,1.72,0.02,0.0,0.0,0.0,0.02,0.0,0.0,0.0,0.02,-3.3374874218749997,-0.028728515625,9.40839734375,0.04,0.0,0.0,0.0,0.04,0.0,0.0,0.0,0.04
1614727206.9469626,2725,1614727206,946437120,base_imu_link,0.13788658213781102,0.08625818708075399,-0.8316043327874907,0.5310188784939447,0.0025,0.0,0.0,0.0,0.0025,0.0,0.0,0.0,0.0025,0.12,0.09,1.66,0.02,0.0,0.0,0.0,0.02,0.0,0.0,0.0,0.02,-3.2942031249999997,-0.1578153125,9.66733703125,0.04,0.0,0.0,0.0,0.04,0.0,0.0,0.0,0.04
1614727206.9670334,2726,1614727206,966551065,base_imu_link,0.13952634181976847,0.08518358617357794,-0.819689582139942,0.5489855603895687,0.0025,0.0,0.0,0.0,0.0025,0.0,0.0,0.0,0.0025,0.12,0.05,1.59,0.02,0.0,0.0,0.0,0.02,0.0,0.0,0.0,0.02,-3.3612363281249995,-0.311417109375,9.619073125,0.04,0.0,0.0,0.0,0.04,0.0,0.0,0.0,0.04
1614727206.9852774,2727,1614727206,984729766,base_imu_link,0.1407580716808275,0.08523131302973835,-0.8084038352275119,0.5651601788213422,0.0025,0.0,0.0,0.0,0.0025,0.0,0.0,0.0,0.0025,0.16,0.04,1.44,0.02,0.0,0.0,0.0,0.02,0.0,0.0,0.0,0.02,-3.3803886718749996,-0.7036571093749999,9.547443359374999,0.04,0.0,0.0,0.0,0.04,0.0,0.0,0.0,0.04
1614727207.00519,2728,1614727207,4793167,base_imu_link,0.14090110253857774,0.08717804654014084,-0.7978158216000794,0.5796867967354861,0.0025,0.0,0.0,0.0,0.0025,0.0,0.0,0.0,0.0025,0.22,0.05,1.24,0.02,0.0,0.0,0.0,0.02,0.0,0.0,0.0,0.02,-3.3470635937499997,-0.741961796875,9.662357421874999,0.04,0.0,0.0,0.0,0.04,0.0,0.0,0.0,0.04
1614727207.0253248,2729,1614727207,24876117,base_imu_link,0.14062735873290974,0.08891098784457617,-0.7883789634780043,0.5922646301794956,0.0025,0.0,0.0,0.0,0.0025,0.0,0.0,0.0,0.0025,0.27,0.04,1.02,0.02,0.0,0.0,0.0,0.02,0.0,0.0,0.0,0.02,-3.4091171874999997,-0.9913253124999999,9.67193359375,0.04,0.0,0.0,0.0,0.04,0.0,0.0,0.0,0.04
1614727207.045291,2730,1614727207,44816017,base_imu_link,0.13955980759612746,0.0920100528849295,-0.7804162596495685,0.6025011800373687,0.0025,0.0,0.0,0.0,0.0025,0.0,0.0,0.0,0.0025,0.29,0.04,0.74,0.02,0.0,0.0,0.0,0.02,0.0,0.0,0.0,0.02,-3.4665742187499995,-1.3360675,9.59072765625,0.04,0.0,0.0,0.0,0.04,0.0,0.0,0.0,0.04
1614727207.0654843,2731,1614727207,64997673,base_imu_link,0.13713006342815576,0.09725070040417771,-0.7738491654440551,0.6106513867311089,0.0025,0.0,0.0,0.0,0.0025,0.0,0.0,0.0,0.0025,0.24,0.02,0.47,0.02,0.0,0.0,0.0,0.02,0.0,0.0,0.0,0.02,-3.437845703125,-1.1349678906249998,9.67193359375,0.04,0.0,0.0,0.0,0.04,0.0,0.0,0.0,0.04
1614727207.0873315,2732,1614727207,86873769,base_imu_link,0.13446671135033014,0.10179081843755505,-0.7681796640913748,0.6176223251283118,0.0025,0.0,0.0,0.0,0.0025,0.0,0.0,0.0,0.0025,0.17,0.01,0.29,0.02,0.0,0.0,0.0,0.02,0.0,0.0,0.0,0.02,-3.4715538281249994,-0.04290125,9.350940312499999,0.04,0.0,0.0,0.0,0.04,0.0,0.0,0.0,0.04
1614727207.1073945,2733,1614727207,106901168,base_imu_link,0.1356691369575678,0.10326705223905897,-0.7616355270865738,0.6251728761539493,0.0025,0.0,0.0,0.0,0.0025,0.0,0.0,0.0,0.0025,0.13,0.07,0.28,0.02,0.0,0.0,0.0,0.02,0.0,0.0,0.0,0.02,-3.5385870312499996,0.7611141406249999,8.852979374999999,0.04,0.0,0.0,0.0,0.04,0.0,0.0,0.0,0.04
1614727207.1272907,2734,1614727207,126753807,base_imu_link,0.1403514229736906,0.10318540367268028,-0.75377949024229,0.6336171798714423,0.0025,0.0,0.0,0.0,0.0025,0.0,0.0,0.0,0.0025,0.09,0.15,0.32,0.02,0.0,0.0,0.0,0.02,0.0,0.0,0.0,0.02,-3.2991827343749995,0.56997375,8.934568359375,0.04,0.0,0.0,0.0,0.04,0.0,0.0,0.0,0.04
1614727207.147246,2735,1614727207,146806716,base_imu_link,0.14292216992576953,0.10356917188678842,-0.7466946848327473,0.6413218596156834,0.0025,0.0,0.0,0.0,0.0025,0.0,0.0,0.0,0.0025,0.08,0.16,0.24,0.02,0.0,0.0,0.0,0.02,0.0,0.0,0.0,0.02,-2.9781894531249997,-0.201099609375,9.269734374999999,0.04,0.0,0.0,0.0,0.04,0.0,0.0,0.0,0.04
1614727207.1672854,2736,1614727207,166836738,base_imu_link,0.14061206278409732,0.10586370985119856,-0.7418616460110888,0.6470412822331045,0.0025,0.0,0.0,0.0,0.0025,0.0,0.0,0.0,0.0025,0.08,0.13,-0.0,0.02,0.0,0.0,0.0,0.02,0.0,0.0,0.0,0.02,-2.710056640625,-0.6082784375,9.533270624999998,0.04,0.0,0.0,0.0,0.04,0.0,0.0,0.0,0.04
1614727207.187128,2737,1614727207,186688184,base_imu_link,0.13465812785719206,0.10841604705697065,-0.7390515984443062,0.6510882307179672,0.0025,0.0,0.0,0.0,0.0025,0.0,0.0,0.0,0.0025,0.05,0.05,-0.24,0.02,0.0,0.0,0.0,0.02,0.0,0.0,0.0,0.02,-2.6525996093749997,-0.36389453125,9.576171875,0.04,0.0,0.0,0.0,0.04,0.0,0.0,0.0,0.04
1614727207.2069361,2738,1614727207,206531286,base_imu_link,0.12865059870160098,0.10939679338996895,-0.7368029450237722,0.6546776193318421,0.0025,0.0,0.0,0.0,0.0025,0.0,0.0,0.0,0.0025,0.02,-0.06,-0.38,0.02,0.0,0.0,0.0,0.02,0.0,0.0,0.0,0.02,-2.6621757812499998,0.51711328125,9.6573778125,0.04,0.0,0.0,0.0,0.04,0.0,0.0,0.0,0.04
1614727207.2273521,2739,1614727207,226919412,base_imu_link,0.12511159847693315,0.10680154668888682,-0.7340093816385036,0.6589163415928231,0.0025,0.0,0.0,0.0,0.0025,0.0,0.0,0.0,0.0025,-0.03,-0.14,-0.41,0.02,0.0,0.0,0.0,0.02,0.0,0.0,0.0,0.02,-2.77708984375,0.67492859375,9.427549687499999,0.04,0.0,0.0,0.0,0.04,0.0,0.0,0.0,0.04
1614727207.2473788,2740,1614727207,246964693,base_imu_link,0.12298856899535675,0.10469396691744152,-0.7308453558623657,0.6631576366158924,0.0025,0.0,0.0,0.0,0.0025,0.0,0.0,0.0,0.0025,-0.06,-0.12,-0.39,0.02,0.0,0.0,0.0,0.02,0.0,0.0,0.0,0.02,-3.0498192187499997,0.8139746093749999,9.016157343749999,0.04,0.0,0.0,0.0,0.04,0.0,0.0,0.0,0.04
1614727207.267438,2741,1614727207,266981601,base_imu_link,0.1234757063324125,0.10460606446278543,-0.7262162771324036,0.6681476184581303,0.0025,0.0,0.0,0.0,0.0025,0.0,0.0,0.0,0.0025,-0.1,-0.02,-0.28,0.02,0.0,0.0,0.0,0.02,0.0,0.0,0.0,0.02,-3.2080175781249998,1.412676875,8.83382703125,0.04,0.0,0.0,0.0,0.04,0.0,0.0,0.0,0.04
1614727207.2875984,2742,1614727207,287187337,base_imu_link,0.12719758181004395,0.10389676540462753,-0.7195562567632944,0.6747333033672853,0.0025,0.0,0.0,0.0,0.0025,0.0,0.0,0.0,0.0025,-0.15,0.08,-0.07,0.02,0.0,0.0,0.0,0.02,0.0,0.0,0.0,0.02,-3.1505605468749995,1.5850479687499999,8.963296875,0.04,0.0,0.0,0.0,0.04,0.0,0.0,0.0,0.04
1614727207.307855,2743,1614727207,307428121,base_imu_link,0.13091813567698535,0.10235857962816575,-0.7114079365456799,0.6828483804968601,0.0025,0.0,0.0,0.0,0.0025,0.0,0.0,0.0,0.0025,-0.16,0.09,0.09,0.02,0.0,0.0,0.0,0.02,0.0,0.0,0.0,0.02,-2.81539453125,1.173272578125,9.413376953124999,0.04,0.0,0.0,0.0,0.04,0.0,0.0,0.0,0.04
1614727207.3277664,2744,1614727207,327440977,base_imu_link,0.13100781871411263,0.10023453457978397,-0.7037906954714852,0.6909910610717822,0.0025,0.0,0.0,0.0,0.0025,0.0,0.0,0.0,0.0025,-0.12,0.03,0.11,0.02,0.0,0.0,0.0,0.02,0.0,0.0,0.0,0.02,-2.59016296875,0.5554179687499999,9.6573778125,0.04,0.0,0.0,0.0,0.04,0.0,0.0,0.0,0.04
1614727207.3475385,2745,1614727207,347100257,base_imu_link,0.12745739757192032,0.09921174264583998,-0.6971497633508896,0.6984939866492536,0.0025,0.0,0.0,0.0,0.0025,0.0,0.0,0.0,0.0025,-0.09,-0.04,0.05,0.02,0.0,0.0,0.0,0.02,0.0,0.0,0.0,0.02,-2.66677234375,0.24438390624999998,9.518714843749999,0.04,0.0,0.0,0.0,0.04,0.0,0.0,0.0,0.04
1614727207.3674319,2746,1614727207,366922140,base_imu_link,0.12359380284308552,0.09977895789914486,-0.6904911086967277,0.7056846039627824,0.0025,0.0,0.0,0.0,0.0025,0.0,0.0,0.0,0.0025,-0.06,-0.05,-0.01,0.02,0.0,0.0,0.0,0.02,0.0,0.0,0.0,0.02,-2.81539453125,0.27311242187499996,9.336767578124999,0.04,0.0,0.0,0.0,0.04,0.0,0.0,0.0,0.04
1614727207.3876045,2747,1614727207,387165069,base_imu_link,0.1213828612136262,0.10083783529773396,-0.6838750071553479,0.7123292122076236,0.0025,0.0,0.0,0.0,0.0025,0.0,0.0,0.0,0.0025,-0.02,-0.02,-0.04,0.02,0.0,0.0,0.0,0.02,0.0,0.0,0.0,0.02,-2.9540575,0.2681328125,9.25517859375,0.04,0.0,0.0,0.0,0.04,0.0,0.0,0.0,0.04
1614727207.4076622,2748,1614727207,407186269,base_imu_link,0.1198435506183561,0.1022820979871198,-0.6773271780666852,0.7186124057228346,0.0025,0.0,0.0,0.0,0.0025,0.0,0.0,0.0,0.0025,-0.0,-0.02,-0.03,0.02,0.0,0.0,0.0,0.02,0.0,0.0,0.0,0.02,-2.8824277343749998,0.32558984375,9.29348328125,0.04,0.0,0.0,0.0,0.04,0.0,0.0,0.0,0.04
1614727207.4278545,2749,1614727207,427405118,base_imu_link,0.11809258880338644,0.10319085979840478,-0.6705443184456333,0.7251042021144695,0.0025,0.0,0.0,0.0,0.0025,0.0,0.0,0.0,0.0025,-0.01,-0.04,-0.04,0.02,0.0,0.0,0.0,0.02,0.0,0.0,0.0,0.02,-2.901580078125,0.392623046875,9.23602625,0.04,0.0,0.0,0.0,0.04,0.0,0.0,0.0,0.04
1614727207.447876,2750,1614727207,447418212,base_imu_link,0.11665109533077539,0.1040334101438132,-0.6633364972719223,0.7318157301664105,0.0025,0.0,0.0,0.0,0.0025,0.0,0.0,0.0,0.0025,-0.02,-0.05,-0.03,0.02,0.0,0.0,0.0,0.02,0.0,0.0,0.0,0.02,-2.982786015625,0.38304687499999995,9.063655156249999,0.04,0.0,0.0,0.0,0.04,0.0,0.0,0.0,0.04
1614727207.467977,2751,1614727207,467508077,base_imu_link,0.11593168093996815,0.10548555269618932,-0.6557999047980749,0.738484345395113,0.0025,0.0,0.0,0.0,0.0025,0.0,0.0,0.0,0.0025,-0.01,-0.02,-0.02,0.02,0.0,0.0,0.0,0.02,0.0,0.0,0.0,0.02,-3.035646484375,0.5316690625,8.977852656249999,0.04,0.0,0.0,0.0,0.04,0.0,0.0,0.0,0.04
1614727207.4880981,2752,1614727207,487614870,base_imu_link,0.11595830575363988,0.1068627140194903,-0.6475258807130687,0.7455496398536444,0.0025,0.0,0.0,0.0,0.0025,0.0,0.0,0.0,0.0025,-0.01,-0.01,0.03,0.02,0.0,0.0,0.0,0.02,0.0,0.0,0.0,0.02,-2.920732421875,0.7469414062499999,9.193124999999998,0.04,0.0,0.0,0.0,0.04,0.0,0.0,0.0,0.04
1614727207.5080087,2753,1614727207,507572412,base_imu_link,0.11607711283780633,0.1063654292765023,-0.6390521683525693,0.7528776962123025,0.0025,0.0,0.0,0.0,0.0025,0.0,0.0,0.0,0.0025,0.01,-0.04,0.05,0.02,0.0,0.0,0.0,0.02,0.0,0.0,0.0,0.02,-2.848719609375,0.6607558593749999,9.389244999999999,0.04,0.0,0.0,0.0,0.04,0.0,0.0,0.0,0.04
1614727207.5279217,2754,1614727207,527571439,base_imu_link,0.11524319922680178,0.10546103463297987,-0.6306459516601821,0.760185937031682,0.0025,0.0,0.0,0.0,0.0025,0.0,0.0,0.0,0.0025,0.02,-0.08,0.06,0.02,0.0,0.0,0.0,0.02,0.0,0.0,0.0,0.02,-2.9157528125,0.45965625,9.360899531249999,0.04,0.0,0.0,0.0,0.04,0.0,0.0,0.0,0.04
1614727207.5481393,2755,1614727207,547734737,base_imu_link,0.1136392140994249,0.1055275814457045,-0.6222587404817096,0.7672966300376938,0.0025,0.0,0.0,0.0,0.0025,0.0,0.0,0.0,0.0025,0.02,-0.11,0.06,0.02,0.0,0.0,0.0,0.02,0.0,0.0,0.0,0.02,-2.9781894531249997,0.45008007812499995,9.33178796875,0.04,0.0,0.0,0.0,0.04,0.0,0.0,0.0,0.04
1614727207.5682704,2756,1614727207,567862272,base_imu_link,0.11221821474615316,0.10599402704336029,-0.6135441802771001,0.7744261600426596,0.0025,0.0,0.0,0.0,0.0025,0.0,0.0,0.0,0.0025,0.03,-0.11,0.05,0.02,0.0,0.0,0.0,0.02,0.0,0.0,0.0,0.02,-3.0689715625,0.41177539062499996,9.24598546875,0.04,0.0,0.0,0.0,0.04,0.0,0.0,0.0,0.04
1614727207.5883052,2757,1614727207,587860584,base_imu_link,0.11131487121825288,0.10713714971464974,-0.6046138091491173,0.7813915614996614,0.0025,0.0,0.0,0.0,0.0025,0.0,0.0,0.0,0.0025,0.03,-0.09,0.06,0.02,0.0,0.0,0.0,0.02,0.0,0.0,0.0,0.02,-3.2034210156249996,0.7806495312499999,9.1548203125,0.04,0.0,0.0,0.0,0.04,0.0,0.0,0.0,0.04
1614727207.6083,2758,1614727207,607859373,base_imu_link,0.11250922689752244,0.1081244925061991,-0.5947072298602378,0.7886533324187256,0.0025,0.0,0.0,0.0,0.0025,0.0,0.0,0.0,0.0025,0.02,-0.05,0.12,0.02,0.0,0.0,0.0,0.02,0.0,0.0,0.0,0.02,-3.227169921875,0.890583984375,9.20768078125,0.04,0.0,0.0,0.0,0.04,0.0,0.0,0.0,0.04
1614727207.6285326,2759,1614727207,628062248,base_imu_link,0.11386769061357865,0.10906505567377899,-0.5839882485684051,0.7963018825792216,0.0025,0.0,0.0,0.0,0.0025,0.0,0.0,0.0,0.0025,-0.01,-0.04,0.18,0.02,0.0,0.0,0.0,0.02,0.0,0.0,0.0,0.02,-3.1076592968749996,0.6270477343749999,9.45666125,0.04,0.0,0.0,0.0,0.04,0.0,0.0,0.0,0.04
1614727207.648361,2760,1614727207,647957563,base_imu_link,0.11255316236931104,0.10992329958255175,-0.5737323083086835,0.8037909505912229,0.0025,0.0,0.0,0.0,0.0025,0.0,0.0,0.0,0.0025,-0.04,-0.09,0.16,0.02,0.0,0.0,0.0,0.02,0.0,0.0,0.0,0.02,-3.0593953906249998,0.18654382812499998,9.643205078125,0.04,0.0,0.0,0.0,0.04,0.0,0.0,0.0,0.04
1614727207.668416,2761,1614727207,667984485,base_imu_link,0.10882052079430526,0.1114570168816762,-0.5642012067432838,0.8108097347413364,0.0025,0.0,0.0,0.0,0.0025,0.0,0.0,0.0,0.0025,-0.04,-0.14,0.1,0.02,0.0,0.0,0.0,0.02,0.0,0.0,0.0,0.02,-3.0980831249999996,0.27770898437499997,9.5807684375,0.04,0.0,0.0,0.0,0.04,0.0,0.0,0.0,0.04
1614727207.688813,2762,1614727207,688370227,base_imu_link,0.10559017710580426,0.1127715532812458,-0.5546331743763242,0.8176278696023895,0.0025,0.0,0.0,0.0,0.0025,0.0,0.0,0.0,0.0025,-0.05,-0.16,0.07,0.02,0.0,0.0,0.0,0.02,0.0,0.0,0.0,0.02,-3.1601367187499996,0.464635859375,9.470833984375,0.04,0.0,0.0,0.0,0.04,0.0,0.0,0.0,0.04
1614727207.7089574,2763,1614727207,708461523,base_imu_link,0.10339199893496424,0.1138616374630407,-0.5447155992042628,0.8243970754763802,0.0025,0.0,0.0,0.0,0.0025,0.0,0.0,0.0,0.0025,-0.06,-0.18,0.07,0.02,0.0,0.0,0.0,0.02,0.0,0.0,0.0,0.02,-3.1268116406249997,0.388026484375,9.437508906249999,0.04,0.0,0.0,0.0,0.04,0.0,0.0,0.0,0.04
1614727207.728724,2764,1614727207,728204965,base_imu_link,0.10099536625510516,0.11502866628545977,-0.5349031056635947,0.8309314108150123,0.0025,0.0,0.0,0.0,0.0025,0.0,0.0,0.0,0.0025,-0.05,-0.17,0.04,0.02,0.0,0.0,0.0,0.02,0.0,0.0,0.0,0.02,-3.0689715625,0.22025195312499998,9.226833124999999,0.04,0.0,0.0,0.0,0.04,0.0,0.0,0.0,0.04
1614727207.748658,2765,1614727207,748252153,base_imu_link,0.09834442194087409,0.11720485544624028,-0.525447064661541,0.8369568559797521,0.0025,0.0,0.0,0.0,0.0025,0.0,0.0,0.0,0.0025,-0.04,-0.11,0.01,0.02,0.0,0.0,0.0,0.02,0.0,0.0,0.0,0.02,-3.0260703125,0.2681328125,9.106939453125,0.04,0.0,0.0,0.0,0.04,0.0,0.0,0.0,0.04
1614727207.7689383,2766,1614727207,768517017,base_imu_link,0.09630905735284997,0.11934965129607712,-0.5156782232968214,0.8429449544452734,0.0025,0.0,0.0,0.0,0.0025,0.0,0.0,0.0,0.0025,-0.04,-0.07,0.01,0.02,0.0,0.0,0.0,0.02,0.0,0.0,0.0,0.02,-2.8728515624999997,0.58912609375,9.3417471875,0.04,0.0,0.0,0.0,0.04,0.0,0.0,0.0,0.04
1614727207.7889707,2767,1614727207,788532495,base_imu_link,0.09508845683419864,0.11966301784086339,-0.5056734245053931,0.8490779323990799,0.0025,0.0,0.0,0.0,0.0025,0.0,0.0,0.0,0.0025,-0.03,-0.06,0.02,0.02,0.0,0.0,0.0,0.02,0.0,0.0,0.0,0.02,-2.786666015625,0.43590734375,9.375072265624999,0.04,0.0,0.0,0.0,0.04,0.0,0.0,0.0,0.04
1614727207.8085837,2768,1614727207,808212518,base_imu_link,0.09312664015633863,0.12008810932782404,-0.4958883448672836,0.8549859790172271,0.0025,0.0,0.0,0.0,0.0025,0.0,0.0,0.0,0.0025,-0.02,-0.05,-0.0,0.02,0.0,0.0,0.0,0.02,0.0,0.0,0.0,0.02,-2.772110234375,0.14364257812499998,9.3034425,0.04,0.0,0.0,0.0,0.04,0.0,0.0,0.0,0.04
1614727207.8288767,2769,1614727207,828448295,base_imu_link,0.09029983145283484,0.12173995084071901,-0.4868560090533085,0.8602305221611086,0.0025,0.0,0.0,0.0,0.0025,0.0,0.0,0.0,0.0025,0.0,0.0,-0.09,0.02,0.0,0.0,0.0,0.02,0.0,0.0,0.0,0.02,-2.7962421875,-0.258556640625,9.183548828125,0.04,0.0,0.0,0.0,0.04,0.0,0.0,0.0,0.04
1614727207.848789,2770,1614727207,848465204,base_imu_link,0.08689138269722171,0.1246982628143746,-0.4794144097922495,0.8643275157876158,0.0025,0.0,0.0,0.0,0.0025,0.0,0.0,0.0,0.0025,0.09,0.05,-0.24,0.02,0.0,0.0,0.0,0.02,0.0,0.0,0.0,0.02,-2.7387851562499996,-0.12946984374999998,9.475813593749999,0.04,0.0,0.0,0.0,0.04,0.0,0.0,0.0,0.04
1614727207.8689313,2771,1614727207,868489503,base_imu_link,0.08373885905459415,0.12547513174566788,-0.47256736183258774,0.8682879034791572,0.0025,0.0,0.0,0.0,0.0025,0.0,0.0,0.0,0.0025,0.15,-0.04,-0.31,0.02,0.0,0.0,0.0,0.02,0.0,0.0,0.0,0.02,-2.638043828125,0.5266894531249999,9.78684765625,0.04,0.0,0.0,0.0,0.04,0.0,0.0,0.0,0.04
1614727207.8888223,2772,1614727207,888353347,base_imu_link,0.08296236511177063,0.12289910531869752,-0.46543481580687596,0.8725729127825047,0.0025,0.0,0.0,0.0,0.0025,0.0,0.0,0.0,0.0025,0.17,-0.13,-0.32,0.02,0.0,0.0,0.0,0.02,0.0,0.0,0.0,0.02,-2.6621757812499998,0.23480773437499997,9.5807684375,0.04,0.0,0.0,0.0,0.04,0.0,0.0,0.0,0.04
1614727207.9089577,2773,1614727207,908545732,base_imu_link,0.08050393372876202,0.12119750277687771,-0.4592862988399579,0.8762912630357196,0.0025,0.0,0.0,0.0,0.0025,0.0,0.0,0.0,0.0025,0.14,-0.2,-0.41,0.02,0.0,0.0,0.0,0.02,0.0,0.0,0.0,0.02,-2.638043828125,-0.28728515624999995,9.619073125,0.04,0.0,0.0,0.0,0.04,0.0,0.0,0.0,0.04
1614727207.92902,2774,1614727207,928572893,base_imu_link,0.07525299882339823,0.1203998978132832,-0.4548810451772671,0.8791610122799315,0.0025,0.0,0.0,0.0,0.0025,0.0,0.0,0.0,0.0025,0.14,-0.28,-0.58,0.02,0.0,0.0,0.0,0.02,0.0,0.0,0.0,0.02,-2.6238710937499996,-0.11031749999999999,9.624052734374999,0.04,0.0,0.0,0.0,0.04,0.0,0.0,0.0,0.04
1614727207.9489415,2775,1614727207,948561668,base_imu_link,0.07084152072375231,0.1189341739842839,-0.45052659966515884,0.8819648089319504,0.0025,0.0,0.0,0.0,0.0025,0.0,0.0,0.0,0.0025,0.12,-0.3,-0.6,0.02,0.0,0.0,0.0,0.02,0.0,0.0,0.0,0.02,-2.9157528125,0.9863457031249999,8.992025390624999,0.04,0.0,0.0,0.0,0.04,0.0,0.0,0.0,0.04
1614727207.969119,2776,1614727207,968606472,base_imu_link,0.07348389207463774,0.11827915864332395,-0.44362881408129146,0.8853268512549572,0.0025,0.0,0.0,0.0,0.0025,0.0,0.0,0.0,0.0025,0.1,-0.16,-0.44,0.02,0.0,0.0,0.0,0.02,0.0,0.0,0.0,0.02,-3.0885069531249996,1.4364257812499999,8.613958125,0.04,0.0,0.0,0.0,0.04,0.0,0.0,0.0,0.04
1614727207.9891958,2777,1614727207,988720178,base_imu_link,0.07844147807056356,0.11899549481301573,-0.43480394546305684,0.8891751996890543,0.0025,0.0,0.0,0.0,0.0025,0.0,0.0,0.0,0.0025,0.07,-0.04,-0.26,0.02,0.0,0.0,0.0,0.02,0.0,0.0,0.0,0.02,-2.74338171875,1.062955078125,9.097363281249999,0.04,0.0,0.0,0.0,0.04,0.0,0.0,0.0,0.04
1614727208.0092409,2778,1614727208,8818626,base_imu_link,0.0803947873459917,0.11876667895707714,-0.42570048694813345,0.8934261298782465,0.0025,0.0,0.0,0.0,0.0025,0.0,0.0,0.0,0.0025,0.04,-0.04,-0.19,0.02,0.0,0.0,0.0,0.02,0.0,0.0,0.0,0.02,-2.35114171875,0.483788203125,9.67193359375,0.04,0.0,0.0,0.0,0.04,0.0,0.0,0.0,0.04
1614727208.029571,2779,1614727208,29094934,base_imu_link,0.07788882350692762,0.11702674286982331,-0.4170393325066369,0.8979511499900235,0.0025,0.0,0.0,0.0,0.0025,0.0,0.0,0.0,0.0025,0.03,-0.1,-0.19,0.02,0.0,0.0,0.0,0.02,0.0,0.0,0.0,0.02,-2.24082421875,0.392623046875,9.848901249999999,0.04,0.0,0.0,0.0,0.04,0.0,0.0,0.0,0.04
1614727208.0495484,2780,1614727208,49083709,base_imu_link,0.07454096731331272,0.11469524358058003,-0.4084466691300288,0.9024743562941675,0.0025,0.0,0.0,0.0,0.0025,0.0,0.0,0.0,0.0025,0.02,-0.15,-0.18,0.02,0.0,0.0,0.0,0.02,0.0,0.0,0.0,0.02,-2.2982812499999996,0.47421203125,9.76309875,0.04,0.0,0.0,0.0,0.04,0.0,0.0,0.0,0.04
1614727208.0695398,2781,1614727208,69056749,base_imu_link,0.07184192152064989,0.11234042227349494,-0.3993899272871025,0.9070314513936311,0.0025,0.0,0.0,0.0,0.0025,0.0,0.0,0.0,0.0025,0.01,-0.19,-0.15,0.02,0.0,0.0,0.0,0.02,0.0,0.0,0.0,0.02,-2.3702940624999997,0.5745703124999999,9.66733703125,0.04,0.0,0.0,0.0,0.04,0.0,0.0,0.0,0.04
1614727208.0896516,2782,1614727208,89173793,base_imu_link,0.0701216202249622,0.11049702558241699,-0.38993134038675803,0.9114970737740473,0.0025,0.0,0.0,0.0,0.0025,0.0,0.0,0.0,0.0025,0.02,-0.18,-0.11,0.02,0.0,0.0,0.0,0.02,0.0,0.0,0.0,0.02,-2.580586796875,0.6320273437499999,9.375072265624999,0.04,0.0,0.0,0.0,0.04,0.0,0.0,0.0,0.04
1614727208.1095867,2783,1614727208,109107494,base_imu_link,0.06973798374448492,0.1107398099941852,-0.37952729388861495,0.9158779074195917,0.0025,0.0,0.0,0.0,0.0025,0.0,0.0,0.0,0.0025,0.01,-0.1,-0.03,0.02,0.0,0.0,0.0,0.02,0.0,0.0,0.0,0.02,-2.77708984375,0.6607558593749999,9.0828075,0.04,0.0,0.0,0.0,0.04,0.0,0.0,0.0,0.04
1614727208.1300526,2784,1614727208,129509449,base_imu_link,0.07007672613967335,0.11276351513657723,-0.36855126535767274,0.9200780439239089,0.0025,0.0,0.0,0.0,0.0025,0.0,0.0,0.0,0.0025,-0.0,-0.03,0.02,0.02,0.0,0.0,0.0,0.02,0.0,0.0,0.0,0.02,-2.710056640625,0.545841796875,9.260158203125,0.04,0.0,0.0,0.0,0.04,0.0,0.0,0.0,0.04
1614727208.149621,2785,1614727208,149188756,base_imu_link,0.06973784392195147,0.11449468390703225,-0.35772596747642715,0.9241535222435721,0.0025,0.0,0.0,0.0,0.0025,0.0,0.0,0.0,0.0025,0.01,-0.02,0.02,0.02,0.0,0.0,0.0,0.02,0.0,0.0,0.0,0.02,-2.66677234375,0.24898046875,9.432529296875,0.04,0.0,0.0,0.0,0.04,0.0,0.0,0.0,0.04
1614727208.1696582,2786,1614727208,169188022,base_imu_link,0.06761935823271466,0.11640374108098674,-0.3474636245722959,0.9279799680238948,0.0025,0.0,0.0,0.0,0.0025,0.0,0.0,0.0,0.0025,0.02,-0.02,-0.04,0.02,0.0,0.0,0.0,0.02,0.0,0.0,0.0,0.02,-2.66677234375,0.067033203125,9.475813593749999,0.04,0.0,0.0,0.0,0.04,0.0,0.0,0.0,0.04
1614727208.1897128,2787,1614727208,189238786,base_imu_link,0.06463943772911764,0.1183727913073459,-0.3380242033446664,0.9314232460709656,0.0025,0.0,0.0,0.0,0.0025,0.0,0.0,0.0,0.0025,0.01,-0.03,-0.09,0.02,0.0,0.0,0.0,0.02,0.0,0.0,0.0,0.02,-2.6430234374999997,0.13406640625,9.547443359374999,0.04,0.0,0.0,0.0,0.04,0.0,0.0,0.0,0.04
1614727208.2098086,2788,1614727208,209432363,base_imu_link,0.06165241991529183,0.11972978027610007,-0.3288259726016358,0.9347391286215708,0.0025,0.0,0.0,0.0,0.0025,0.0,0.0,0.0,0.0025,-0.0,-0.05,-0.12,0.02,0.0,0.0,0.0,0.02,0.0,0.0,0.0,0.02,-2.6142949218749996,0.3064375,9.566595703125,0.04,0.0,0.0,0.0,0.04,0.0,0.0,0.0,0.04
1614727208.2299836,2789,1614727208,229574441,base_imu_link,0.059485939505933325,0.12039266956631725,-0.31948365796768613,0.9380283686581012,0.0025,0.0,0.0,0.0,0.0025,0.0,0.0,0.0,0.0025,-0.02,-0.07,-0.12,0.02,0.0,0.0,0.0,0.02,0.0,0.0,0.0,0.02,-2.5664140625,0.392623046875,9.509138671874998,0.04,0.0,0.0,0.0,0.04,0.0,0.0,0.0,0.04
1614727208.249966,2790,1614727208,249497175,base_imu_link,0.057751804762879236,0.12069744808183078,-0.31017626789343694,0.9412159889785462,0.0025,0.0,0.0,0.0,0.0025,0.0,0.0,0.0,0.0025,-0.02,-0.07,-0.12,0.02,0.0,0.0,0.0,0.02,0.0,0.0,0.0,0.02,-2.465672734375,0.28268859375,9.4995625,0.04,0.0,0.0,0.0,0.04,0.0,0.0,0.0,0.04
1614727208.2699878,2791,1614727208,269522190,base_imu_link,0.055316847894010715,0.12065383073135659,-0.3010232703811458,0.9443345223796277,0.0025,0.0,0.0,0.0,0.0025,0.0,0.0,0.0,0.0025,-0.03,-0.08,-0.12,0.02,0.0,0.0,0.0,0.02,0.0,0.0,0.0,0.02,-2.3365859374999998,0.258556640625,9.55242296875,0.04,0.0,0.0,0.0,0.04,0.0,0.0,0.0,0.04
1614727208.2899938,2792,1614727208,289557695,base_imu_link,0.052686736600218484,0.11991220678902137,-0.2918567164937196,0.9474517547014787,0.0025,0.0,0.0,0.0,0.0025,0.0,0.0,0.0,0.0025,-0.02,-0.08,-0.14,0.02,0.0,0.0,0.0,0.02,0.0,0.0,0.0,0.02,-2.2649561718749998,0.181947265625,9.523311406249999,0.04,0.0,0.0,0.0,0.04,0.0,0.0,0.0,0.04
1614727208.3103552,2793,1614727208,309936046,base_imu_link,0.049943787518754515,0.11898953023273892,-0.28265385201931126,0.9505019251542414,0.0025,0.0,0.0,0.0,0.0025,0.0,0.0,0.0,0.0025,-0.0,-0.09,-0.13,0.02,0.0,0.0,0.0,0.02,0.0,0.0,0.0,0.02,-2.23622765625,0.45008007812499995,9.489986328125,0.04,0.0,0.0,0.0,0.04,0.0,0.0,0.0,0.04
1614727208.3303914,2794,1614727208,329954624,base_imu_link,0.048698027054397054,0.11752213393051071,-0.27295347569755446,0.95357928370013,0.0025,0.0,0.0,0.0,0.0025,0.0,0.0,0.0,0.0025,-0.0,-0.09,-0.07,0.02,0.0,0.0,0.0,0.02,0.0,0.0,0.0,0.02,-2.31283703125,0.5554179687499999,9.37009265625,0.04,0.0,0.0,0.0,0.04,0.0,0.0,0.0,0.04
1614727208.3502827,2795,1614727208,349806785,base_imu_link,0.048439378935751135,0.11686695580511818,-0.26270520487918564,0.9565467665193106,0.0025,0.0,0.0,0.0,0.0025,0.0,0.0,0.0,0.0025,0.01,-0.07,-0.01,0.02,0.0,0.0,0.0,0.02,0.0,0.0,0.0,0.02,-2.4227714843749997,0.6082784375,9.355919921875,0.04,0.0,0.0,0.0,0.04,0.0,0.0,0.0,0.04
1614727208.3704975,2796,1614727208,370013713,base_imu_link,0.0486490405764665,0.11692014786900193,-0.2517812668242858,0.9594629453760254,0.0025,0.0,0.0,0.0,0.0025,0.0,0.0,0.0,0.0025,0.01,-0.05,0.03,0.02,0.0,0.0,0.0,0.02,0.0,0.0,0.0,0.02,-2.437327265625,0.430927734375,9.403800781249998,0.04,0.0,0.0,0.0,0.04,0.0,0.0,0.0,0.04
1614727208.3903081,2797,1614727208,389870643,base_imu_link,0.047917559958512976,0.11731316950526355,-0.24103621579912,0.9622073946823998,0.0025,0.0,0.0,0.0,0.0025,0.0,0.0,0.0,0.0025,0.02,-0.04,0.04,0.02,0.0,0.0,0.0,0.02,0.0,0.0,0.0,0.02,-2.42775109375,0.27770898437499997,9.561616093749999,0.04,0.0,0.0,0.0,0.04,0.0,0.0,0.0,0.04
1614727208.4104285,2798,1614727208,409939527,base_imu_link,0.046260391493654185,0.11755605155046538,-0.2308256354852933,0.9647590771407796,0.0025,0.0,0.0,0.0,0.0025,0.0,0.0,0.0,0.0025,0.01,-0.06,0.03,0.02,0.0,0.0,0.0,0.02,0.0,0.0,0.0,0.02,-2.465672734375,0.14364257812499998,9.59532421875,0.04,0.0,0.0,0.0,0.04,0.0,0.0,0.0,0.04
1614727208.430621,2799,1614727208,430139303,base_imu_link,0.04372476750781269,0.11806175965815477,-0.2207273016269673,0.9671757978409539,0.0025,0.0,0.0,0.0,0.0025,0.0,0.0,0.0,0.0025,-0.01,-0.06,0.01,0.02,0.0,0.0,0.0,0.02,0.0,0.0,0.0,0.02,-2.5664140625,0.16739148437499998,9.561616093749999,0.04,0.0,0.0,0.0,0.04,0.0,0.0,0.0,0.04
1614727208.4508128,2800,1614727208,450375795,base_imu_link,0.041507596094117354,0.11916448977043326,-0.21070149072090358,0.9693718717046772,0.0025,0.0,0.0,0.0,0.0025,0.0,0.0,0.0,0.0025,-0.02,-0.06,0.0,0.02,0.0,0.0,0.0,0.02,0.0,0.0,0.0,0.02,-2.6621757812499998,0.28728515624999995,9.509138671874998,0.04,0.0,0.0,0.0,0.04,0.0,0.0,0.0,0.04
1614727208.4714987,2801,1614727208,471051692,base_imu_link,0.04021964095002318,0.12065973258849676,-0.20058160460877072,0.9713859322154581,0.0025,0.0,0.0,0.0,0.0025,0.0,0.0,0.0,0.0025,-0.01,-0.04,0.01,0.02,0.0,0.0,0.0,0.02,0.0,0.0,0.0,0.02,-2.6621757812499998,0.36389453125,9.51411828125,0.04,0.0,0.0,0.0,0.04,0.0,0.0,0.0,0.04
1614727208.4907067,2802,1614727208,490237236,base_imu_link,0.0395209770859597,0.12201756221774732,-0.1906862998316698,0.9732361182863672,0.0025,0.0,0.0,0.0,0.0025,0.0,0.0,0.0,0.0025,0.0,-0.03,0.01,0.02,0.0,0.0,0.0,0.02,0.0,0.0,0.0,0.02,-2.571010625,0.253960078125,9.599920781249999,0.04,0.0,0.0,0.0,0.04,0.0,0.0,0.0,0.04
1614727208.5107393,2803,1614727208,510231733,base_imu_link,0.038117664589955566,0.12270087748203422,-0.18113095184459635,0.975029802926668,0.0025,0.0,0.0,0.0,0.0025,0.0,0.0,0.0,0.0025,0.02,-0.04,0.0,0.02,0.0,0.0,0.0,0.02,0.0,0.0,0.0,0.02,-2.49440125,0.22523156249999998,9.59072765625,0.04,0.0,0.0,0.0,0.04,0.0,0.0,0.0,0.04
1614727208.5305872,2804,1614727208,530117034,base_imu_link,0.03664404769127759,0.12319677538173832,-0.17197524976357267,0.9766802351707019,0.0025,0.0,0.0,0.0,0.0025,0.0,0.0,0.0,0.0025,0.02,-0.03,-0.01,0.02,0.0,0.0,0.0,0.02,0.0,0.0,0.0,0.02,-2.480228515625,0.258556640625,9.5041590625,0.04,0.0,0.0,0.0,0.04,0.0,0.0,0.0,0.04
1614727208.5506654,2805,1614727208,550189256,base_imu_link,0.035209776519232086,0.1237624109239176,-0.1623878421825913,0.9783012450114981,0.0025,0.0,0.0,0.0,0.0025,0.0,0.0,0.0,0.0025,0.01,-0.01,-0.01,0.02,0.0,0.0,0.0,0.02,0.0,0.0,0.0,0.02,-2.461076171875,0.27311242187499996,9.48500671875,0.04,0.0,0.0,0.0,0.04,0.0,0.0,0.0,0.04
1614727208.571029,2806,1614727208,570595741,base_imu_link,0.033866495460056524,0.12438396752917742,-0.15279547578756386,0.9798138760426934,0.0025,0.0,0.0,0.0,0.0025,0.0,0.0,0.0,0.0025,-0.0,-0.0,0.01,0.02,0.0,0.0,0.0,0.02,0.0,0.0,0.0,0.02,-2.4036191406249996,0.35929796875,9.54246375,0.04,0.0,0.0,0.0,0.04,0.0,0.0,0.0,0.04
1614727208.5910194,2807,1614727208,590583324,base_imu_link,0.03285871092239273,0.12441735989534589,-0.14315973260999024,0.9812980773609141,0.0025,0.0,0.0,0.0,0.0025,0.0,0.0,0.0,0.0025,-0.0,-0.01,0.02,0.02,0.0,0.0,0.0,0.02,0.0,0.0,0.0,0.02,-2.3365859374999998,0.368874140625,9.59072765625,0.04,0.0,0.0,0.0,0.04,0.0,0.0,0.0,0.04
1614727208.611409,2808,1614727208,610937595,base_imu_link,0.03190385542621441,0.12390816349301789,-0.13377854240819553,0.9827167509612673,0.0025,0.0,0.0,0.0,0.0025,0.0,0.0,0.0,0.0025,-0.0,-0.02,0.03,0.02,0.0,0.0,0.0,0.02,0.0,0.0,0.0,0.02,-2.322413203125,0.28728515624999995,9.5378671875,0.04,0.0,0.0,0.0,0.04,0.0,0.0,0.0,0.04
1614727208.6310809,2809,1614727208,630644559,base_imu_link,0.030478404981099605,0.12362636513529628,-0.12440379170493306,0.9840280917141939,0.0025,0.0,0.0,0.0,0.0025,0.0,0.0,0.0,0.0025,0.0,-0.02,0.02,0.02,0.0,0.0,0.0,0.02,0.0,0.0,0.0,0.02,-2.322413203125,0.21067578124999997,9.523311406249999,0.04,0.0,0.0,0.0,0.04,0.0,0.0,0.0,0.04
1614727208.6509376,2810,1614727208,650528669,base_imu_link,0.028867833067117876,0.12334367136187219,-0.11549993636123268,0.9851968085867588,0.0025,0.0,0.0,0.0,0.0025,0.0,0.0,0.0,0.0025,0.01,-0.03,-0.0,0.02,0.0,0.0,0.0,0.02,0.0,0.0,0.0,0.02,-2.322413203125,0.19152343749999998,9.55242296875,0.04,0.0,0.0,0.0,0.04,0.0,0.0,0.0,0.04
1614727208.6710083,2811,1614727208,670548915,base_imu_link,0.02711752893152016,0.12287892298229156,-0.10690828550342184,0.986273810055848,0.0025,0.0,0.0,0.0,0.0025,0.0,0.0,0.0,0.0025,0.01,-0.04,-0.01,0.02,0.0,0.0,0.0,0.02,0.0,0.0,0.0,0.02,-2.365314453125,0.17696765625,9.523311406249999,0.04,0.0,0.0,0.0,0.04,0.0,0.0,0.0,0.04
1614727208.6910708,2812,1614727208,690568208,base_imu_link,0.025474729662162104,0.12272447586655341,-0.09882480225957554,0.9871795174284539,0.0025,0.0,0.0,0.0,0.0025,0.0,0.0,0.0,0.0025,0.01,-0.05,-0.03,0.02,0.0,0.0,0.0,0.02,0.0,0.0,0.0,0.02,-2.3607178906249997,0.253960078125,9.475813593749999,0.04,0.0,0.0,0.0,0.04,0.0,0.0,0.0,0.04
1614727208.711034,2813,1614727208,710674285,base_imu_link,0.02429695108129345,0.1226028702335122,-0.0902811476054794,0.9880422606172752,0.0025,0.0,0.0,0.0,0.0025,0.0,0.0,0.0,0.0025,0.01,-0.04,-0.03,0.02,0.0,0.0,0.0,0.02,0.0,0.0,0.0,0.02,-2.341565546875,0.311417109375,9.44670203125,0.04,0.0,0.0,0.0,0.04,0.0,0.0,0.0,0.04
1614727208.730983,2814,1614727208,730517864,base_imu_link,0.023475181233719576,0.12252786108626157,-0.0817730594214629,0.9888119163301603,0.0025,0.0,0.0,0.0,0.0025,0.0,0.0,0.0,0.0025,0.02,-0.04,-0.03,0.02,0.0,0.0,0.0,0.02,0.0,0.0,0.0,0.02,-2.303260859375,0.34474218749999996,9.451681640624999,0.04,0.0,0.0,0.0,0.04,0.0,0.0,0.0,0.04
1614727208.751189,2815,1614727208,750732898,base_imu_link,0.023015629201042595,0.12215708663728217,-0.07355870578967073,0.9895135389671637,0.0025,0.0,0.0,0.0,0.0025,0.0,0.0,0.0,0.0025,0.03,-0.03,-0.01,0.02,0.0,0.0,0.0,0.02,0.0,0.0,0.0,0.02,-2.245803828125,0.40219921875,9.54246375,0.04,0.0,0.0,0.0,0.04,0.0,0.0,0.0,0.04
1614727208.7710304,2816,1614727208,770587921,base_imu_link,0.022688683702249468,0.12134758665305928,-0.06518302943913108,0.9902076345486713,0.0025,0.0,0.0,0.0,0.0025,0.0,0.0,0.0,0.0025,0.03,-0.05,-0.01,0.02,0.0,0.0,0.0,0.02,0.0,0.0,0.0,0.02,-2.173791015625,0.3064375,9.624052734374999,0.04,0.0,0.0,0.0,0.04,0.0,0.0,0.0,0.04
1614727208.791062,2817,1614727208,790613412,base_imu_link,0.02180718472522005,0.12004567235651518,-0.057240091730927846,0.9908769122052785,0.0025,0.0,0.0,0.0,0.0025,0.0,0.0,0.0,0.0025,0.03,-0.07,-0.03,0.02,0.0,0.0,0.0,0.02,0.0,0.0,0.0,0.02,-2.2025195312499997,0.181947265625,9.59072765625,0.04,0.0,0.0,0.0,0.04,0.0,0.0,0.0,0.04
1614727208.8113792,2818,1614727208,810938596,base_imu_link,0.02024364153031072,0.1190249627081914,-0.04971812180849896,0.9914390357423604,0.0025,0.0,0.0,0.0,0.0025,0.0,0.0,0.0,0.0025,0.03,-0.07,-0.04,0.02,0.0,0.0,0.0,0.02,0.0,0.0,0.0,0.02,-2.2553799999999997,0.162794921875,9.51411828125,0.04,0.0,0.0,0.0,0.04,0.0,0.0,0.0,0.04
1614727208.8313313,2819,1614727208,830834865,base_imu_link,0.018879212185476717,0.11857818617945982,-0.04281407801802215,0.9918415921068806,0.0025,0.0,0.0,0.0,0.0025,0.0,0.0,0.0,0.0025,0.03,-0.06,-0.05,0.02,0.0,0.0,0.0,0.02,0.0,0.0,0.0,0.02,-2.2649561718749998,0.3064375,9.494965937499998,0.04,0.0,0.0,0.0,0.04,0.0,0.0,0.0,0.04
1614727208.8513267,2820,1614727208,850891828,base_imu_link,0.018158287194452824,0.118275812605943,-0.03547216243949772,0.9921808476535079,0.0025,0.0,0.0,0.0,0.0025,0.0,0.0,0.0,0.0025,0.03,-0.05,-0.03,0.02,0.0,0.0,0.0,0.02,0.0,0.0,0.0,0.02,-2.24082421875,0.36389453125,9.518714843749999,0.04,0.0,0.0,0.0,0.04,0.0,0.0,0.0,0.04
1614727208.8713446,2821,1614727208,870904922,base_imu_link,0.017842923724194173,0.1178750422824597,-0.027918043790439957,0.9924755348676338,0.0025,0.0,0.0,0.0,0.0025,0.0,0.0,0.0,0.0025,0.03,-0.05,-0.03,0.02,0.0,0.0,0.0,0.02,0.0,0.0,0.0,0.02,-2.250400390625,0.229828125,9.547443359374999,0.04,0.0,0.0,0.0,0.04,0.0,0.0,0.0,0.04
1614727208.8914416,2822,1614727208,890994787,base_imu_link,0.01671401228461438,0.11774817120913343,-0.020608040245967213,0.9926889334768848,0.0025,0.0,0.0,0.0,0.0025,0.0,0.0,0.0,0.0025,0.03,-0.04,-0.04,0.02,0.0,0.0,0.0,0.02,0.0,0.0,0.0,0.02,-2.269552734375,0.229828125,9.494965937499998,0.04,0.0,0.0,0.0,0.04,0.0,0.0,0.0,0.04
1614727208.9115136,2823,1614727208,911075115,base_imu_link,0.015682150295257394,0.11777208864091607,-0.014078544941391673,0.9928170022071573,0.0025,0.0,0.0,0.0,0.0025,0.0,0.0,0.0,0.0025,0.02,-0.03,-0.04,0.02,0.0,0.0,0.0,0.02,0.0,0.0,0.0,0.02,-2.27453234375,0.26353624999999997,9.5041590625,0.04,0.0,0.0,0.0,0.04,0.0,0.0,0.0,0.04
1614727208.9316647,2824,1614727208,931233882,base_imu_link,0.014686278113205057,0.11787994539819727,-0.007126514113487123,0.9928936723056954,0.0025,0.0,0.0,0.0,0.0025,0.0,0.0,0.0,0.0025,0.01,-0.03,-0.03,0.02,0.0,0.0,0.0,0.02,0.0,0.0,0.0,0.02,-2.24082421875,0.48838476562499994,9.5807684375,0.04,0.0,0.0,0.0,0.04,0.0,0.0,0.0,0.04
1614727208.952084,2825,1614727208,951616764,base_imu_link,0.014960044963580093,0.11754998075856264,-6.188681562781695e-05,0.9929542765144683,0.0025,0.0,0.0,0.0,0.0025,0.0,0.0,0.0,0.0025,0.01,-0.04,0.01,0.02,0.0,0.0,0.0,0.02,0.0,0.0,0.0,0.02,-2.2599765625,0.579549921875,9.609879999999999,0.04,0.0,0.0,0.0,0.04,0.0,0.0,0.0,0.04
1614727208.9723227,2826,1614727208,971819877,base_imu_link,0.01572861831795234,0.11723780427006708,0.007202795958040331,0.9929531849720451,0.0025,0.0,0.0,0.0,0.0025,0.0,0.0,0.0,0.0025,0.03,-0.05,0.03,0.02,0.0,0.0,0.0,0.02,0.0,0.0,0.0,0.02,-2.2936846875,0.464635859375,9.604900390625,0.04,0.0,0.0,0.0,0.04,0.0,0.0,0.0,0.04
1614727208.9922707,2827,1614727208,991692781,base_imu_link,0.015753536909736743,0.11720016604396451,0.01497856134608913,0.9928703791805366,0.0025,0.0,0.0,0.0,0.0025,0.0,0.0,0.0,0.0025,0.03,-0.05,0.03,0.02,0.0,0.0,0.0,0.02,0.0,0.0,0.0,0.02,-2.3365859374999998,0.27311242187499996,9.599920781249999,0.04,0.0,0.0,0.0,0.04,0.0,0.0,0.0,0.04
1614727209.012227,2828,1614727209,11658906,base_imu_link,0.014563364905887466,0.11747542591356755,0.022120359737961774,0.992722580781815,0.0025,0.0,0.0,0.0,0.0025,0.0,0.0,0.0,0.0025,0.01,-0.04,0.02,0.02,0.0,0.0,0.0,0.02,0.0,0.0,0.0,0.02,-2.3702940624999997,0.090782109375,9.619073125,0.04,0.0,0.0,0.0,0.04,0.0,0.0,0.0,0.04
1614727209.0315974,2829,1614727209,31203508,base_imu_link,0.012420333190322225,0.11778580929189363,0.028602946729626134,0.9925492984689865,0.0025,0.0,0.0,0.0,0.0025,0.0,0.0,0.0,0.0025,0.01,-0.05,-0.01,0.02,0.0,0.0,0.0,0.02,0.0,0.0,0.0,0.02,-2.38944640625,0.27770898437499997,9.6573778125,0.04,0.0,0.0,0.0,0.04,0.0,0.0,0.0,0.04
1614727209.0521948,2830,1614727209,51740646,base_imu_link,0.011600346649705339,0.11794405681662608,0.034760629783709675,0.9923438567534355,0.0025,0.0,0.0,0.0,0.0025,0.0,0.0,0.0,0.0025,0.02,-0.06,-0.01,0.02,0.0,0.0,0.0,0.02,0.0,0.0,0.0,0.02,-2.38944640625,0.430927734375,9.561616093749999,0.04,0.0,0.0,0.0,0.04,0.0,0.0,0.0,0.04
1614727209.0724344,2831,1614727209,72001934,base_imu_link,0.011519273104926727,0.11840311423755169,0.04176039320490212,0.992020200623634,0.0025,0.0,0.0,0.0,0.0025,0.0,0.0,0.0,0.0025,0.03,-0.05,0.0,0.02,0.0,0.0,0.0,0.02,0.0,0.0,0.0,0.02,-2.40859875,0.392623046875,9.451681640624999,0.04,0.0,0.0,0.0,0.04,0.0,0.0,0.0,0.04
1614727209.0922134,2832,1614727209,91794967,base_imu_link,0.011232698270149676,0.11927893571408973,0.0480854117542008,0.9916320664242936,0.0025,0.0,0.0,0.0,0.0025,0.0,0.0,0.0,0.0025,0.03,-0.02,0.0,0.02,0.0,0.0,0.0,0.02,0.0,0.0,0.0,0.02,-2.341565546875,0.253960078125,9.480410156249999,0.04,0.0,0.0,0.0,0.04,0.0,0.0,0.0,0.04
1614727209.1120646,2833,1614727209,111647129,base_imu_link,0.010137800113255546,0.11984445557794168,0.05408481048444915,0.9912665457640298,0.0025,0.0,0.0,0.0,0.0025,0.0,0.0,0.0,0.0025,0.02,-0.01,-0.01,0.02,0.0,0.0,0.0,0.02,0.0,0.0,0.0,0.02,-2.284108515625,0.201099609375,9.528291015625,0.04,0.0,0.0,0.0,0.04,0.0,0.0,0.0,0.04
1614727209.1323872,2834,1614727209,131859779,base_imu_link,0.008817767418807576,0.12002662866631252,0.059267409567034524,0.9909607608538091,0.0025,0.0,0.0,0.0,0.0025,0.0,0.0,0.0,0.0025,0.02,-0.0,-0.01,0.02,0.0,0.0,0.0,0.02,0.0,0.0,0.0,0.02,-2.2170753125,0.16739148437499998,9.571575312499998,0.04,0.0,0.0,0.0,0.04,0.0,0.0,0.0,0.04
1614727209.1523001,2835,1614727209,151875495,base_imu_link,0.007384360770108303,0.11975299954622391,0.06422026633346788,0.9906969504887745,0.0025,0.0,0.0,0.0,0.0025,0.0,0.0,0.0,0.0025,0.01,-0.01,-0.02,0.02,0.0,0.0,0.0,0.02,0.0,0.0,0.0,0.02,-2.130889765625,0.24898046875,9.652781249999999,0.04,0.0,0.0,0.0,0.04,0.0,0.0,0.0,0.04
1614727209.172395,2836,1614727209,171981334,base_imu_link,0.006333000211339495,0.11881258205490391,0.06999992992346062,0.9904259049845578,0.0025,0.0,0.0,0.0,0.0025,0.0,0.0,0.0,0.0025,0.0,-0.03,-0.01,0.02,0.0,0.0,0.0,0.02,0.0,0.0,0.0,0.02,-2.073432734375,0.311417109375,9.67193359375,0.04,0.0,0.0,0.0,0.04,0.0,0.0,0.0,0.04
1614727209.1924124,2837,1614727209,191966533,base_imu_link,0.005652307855290967,0.11745942633104055,0.0759197804384681,0.9901553017179004,0.0025,0.0,0.0,0.0,0.0025,0.0,0.0,0.0,0.0025,0.01,-0.04,-0.01,0.02,0.0,0.0,0.0,0.02,0.0,0.0,0.0,0.02,-2.10216125,0.35431835937499995,9.599920781249999,0.04,0.0,0.0,0.0,0.04,0.0,0.0,0.0,0.04
1614727209.2124588,2838,1614727209,211996555,base_imu_link,0.005392715853144247,0.1165691775023289,0.08169060472147603,0.989802601821392,0.0025,0.0,0.0,0.0,0.0025,0.0,0.0,0.0,0.0025,0.02,-0.04,-0.01,0.02,0.0,0.0,0.0,0.02,0.0,0.0,0.0,0.02,-2.188346796875,0.32099328125,9.44670203125,0.04,0.0,0.0,0.0,0.04,0.0,0.0,0.0,0.04
1614727209.2325156,2839,1614727209,232187032,base_imu_link,0.0048866850484663455,0.11651665945195197,0.08677776779138784,0.9893783944459971,0.0025,0.0,0.0,0.0,0.0025,0.0,0.0,0.0,0.0025,0.01,-0.02,-0.02,0.02,0.0,0.0,0.0,0.02,0.0,0.0,0.0,0.02,-2.226651484375,0.26353624999999997,9.427549687499999,0.04,0.0,0.0,0.0,0.04,0.0,0.0,0.0,0.04
1614727209.252727,2840,1614727209,252359390,base_imu_link,0.004123177568379844,0.11668485506273613,0.09094730849878116,0.9889874777177693,0.0025,0.0,0.0,0.0,0.0025,0.0,0.0,0.0,0.0025,0.01,-0.02,-0.02,0.02,0.0,0.0,0.0,0.02,0.0,0.0,0.0,0.02,-2.16421484375,0.30184093749999996,9.528291015625,0.04,0.0,0.0,0.0,0.04,0.0,0.0,0.0,0.04
1614727209.2729654,2841,1614727209,272529363,base_imu_link,0.0037586020293056115,0.11628946720709843,0.09585674550109385,0.9885717561560278,0.0025,0.0,0.0,0.0,0.0025,0.0,0.0,0.0,0.0025,0.02,-0.03,-0.01,0.02,0.0,0.0,0.0,0.02,0.0,0.0,0.0,0.02,-2.092585078125,0.388026484375,9.67653015625,0.04,0.0,0.0,0.0,0.04,0.0,0.0,0.0,0.04
1614727209.292968,2842,1614727209,292509555,base_imu_link,0.003705211635651868,0.11524249284273065,0.10169168304637363,0.9881114516335311,0.0025,0.0,0.0,0.0,0.0025,0.0,0.0,0.0,0.0025,0.03,-0.05,-0.01,0.02,0.0,0.0,0.0,0.02,0.0,0.0,0.0,0.02,-2.0971816406249997,0.3784503125,9.648184687499999,0.04,0.0,0.0,0.0,0.04,0.0,0.0,0.0,0.04
1614727209.3133507,2843,1614727209,312756776,base_imu_link,0.003622011584470869,0.11426191278843893,0.10633632226299346,0.9877366465235508,0.0025,0.0,0.0,0.0,0.0025,0.0,0.0,0.0,0.0025,0.01,-0.06,0.01,0.02,0.0,0.0,0.0,0.02,0.0,0.0,0.0,0.02,-2.130889765625,0.349721796875,9.51411828125,0.04,0.0,0.0,0.0,0.04,0.0,0.0,0.0,0.04
1614727209.3334084,2844,1614727209,332979202,base_imu_link,0.003219635238859486,0.1139426494888686,0.11090366767433621,0.9872725475129783,0.0025,0.0,0.0,0.0,0.0025,0.0,0.0,0.0,0.0025,-0.0,-0.04,0.02,0.02,0.0,0.0,0.0,0.02,0.0,0.0,0.0,0.02,-2.1833671875,0.292264765625,9.5041590625,0.04,0.0,0.0,0.0,0.04,0.0,0.0,0.0,0.04
1614727209.353501,2845,1614727209,353077650,base_imu_link,0.002354737580877741,0.11392776006338394,0.11618740446922081,0.9866688440102742,0.0025,0.0,0.0,0.0,0.0025,0.0,0.0,0.0,0.0025,-0.0,-0.03,0.01,0.02,0.0,0.0,0.0,0.02,0.0,0.0,0.0,0.02,-2.2025195312499997,0.3064375,9.585748046874999,0.04,0.0,0.0,0.0,0.04,0.0,0.0,0.0,0.04
1614727209.373293,2846,1614727209,372871160,base_imu_link,0.0017327088171476303,0.11384118159613295,0.12093424335792281,0.9861095739705592,0.0025,0.0,0.0,0.0,0.0025,0.0,0.0,0.0,0.0025,0.01,-0.04,0.0,0.02,0.0,0.0,0.0,0.02,0.0,0.0,0.0,0.02,-2.173791015625,0.3784503125,9.638225468749999,0.04,0.0,0.0,0.0,0.04,0.0,0.0,0.0,0.04
1614727209.393282,2847,1614727209,392895936,base_imu_link,0.0016515180035965218,0.11355929995885153,0.12571279041256675,0.985544444562408,0.0025,0.0,0.0,0.0,0.0025,0.0,0.0,0.0,0.0025,0.02,-0.05,0.0,0.02,0.0,0.0,0.0,0.02,0.0,0.0,0.0,0.02,-2.16421484375,0.37347070312499997,9.585748046874999,0.04,0.0,0.0,0.0,0.04,0.0,0.0,0.0,0.04
1614727209.4134483,2848,1614727209,412945985,base_imu_link,0.0013332446559784442,0.11333072369375022,0.1302580306835802,0.9849808195940536,0.0025,0.0,0.0,0.0,0.0025,0.0,0.0,0.0,0.0025,0.01,-0.04,0.0,0.02,0.0,0.0,0.0,0.02,0.0,0.0,0.0,0.02,-2.1500421093749997,0.3064375,9.5807684375,0.04,0.0,0.0,0.0,0.04,0.0,0.0,0.0,0.04
1614727209.4332983,2849,1614727209,432919025,base_imu_link,0.0008207926108840177,0.11298012607710711,0.13440363922434603,0.9844645647123834,0.0025,0.0,0.0,0.0,0.0025,0.0,0.0,0.0,0.0025,0.01,-0.05,0.0,0.02,0.0,0.0,0.0,0.02,0.0,0.0,0.0,0.02,-2.1450625,0.31601367187499996,9.63362890625,0.04,0.0,0.0,0.0,0.04,0.0,0.0,0.0,0.04
1614727209.4531777,2850,1614727209,452849864,base_imu_link,0.000274594450853545,0.11254152430333353,0.1389792160146122,0.9838796203913024,0.0025,0.0,0.0,0.0,0.0025,0.0,0.0,0.0,0.0025,0.01,-0.06,-0.01,0.02,0.0,0.0,0.0,0.02,0.0,0.0,0.0,0.02,-2.2025195312499997,0.23480773437499997,9.59072765625,0.04,0.0,0.0,0.0,0.04,0.0,0.0,0.0,0.04
1614727209.4733882,2851,1614727209,473001718,base_imu_link,-0.0007454564107478058,0.11236875489175624,0.14282749098271302,0.9833478606466782,0.0025,0.0,0.0,0.0,0.0025,0.0,0.0,0.0,0.0025,0.01,-0.05,-0.03,0.02,0.0,0.0,0.0,0.02,0.0,0.0,0.0,0.02,-2.2025195312499997,0.3064375,9.557019531249999,0.04,0.0,0.0,0.0,0.04,0.0,0.0,0.0,0.04
1614727209.4937096,2852,1614727209,493249177,base_imu_link,-0.001265961946566035,0.11243810028730249,0.14652346449514428,0.9827954748046372,0.0025,0.0,0.0,0.0,0.0025,0.0,0.0,0.0,0.0025,0.01,-0.04,-0.02,0.02,0.0,0.0,0.0,0.02,0.0,0.0,0.0,0.02,-2.173791015625,0.42633117187499997,9.561616093749999,0.04,0.0,0.0,0.0,0.04,0.0,0.0,0.0,0.04
1614727209.5137482,2853,1614727209,513327598,base_imu_link,-0.0010842534746296068,0.11243853254573813,0.15023020699127743,0.982235860524712,0.0025,0.0,0.0,0.0,0.0025,0.0,0.0,0.0,0.0025,0.02,-0.04,-0.01,0.02,0.0,0.0,0.0,0.02,0.0,0.0,0.0,0.02,-2.111737421875,0.40219921875,9.604900390625,0.04,0.0,0.0,0.0,0.04,0.0,0.0,0.0,0.04
1614727209.5335655,2854,1614727209,533147573,base_imu_link,-0.0008999053835067883,0.11200061706401924,0.1537880953090118,0.9817353379036561,0.0025,0.0,0.0,0.0,0.0025,0.0,0.0,0.0,0.0025,0.02,-0.06,-0.02,0.02,0.0,0.0,0.0,0.02,0.0,0.0,0.0,0.02,-2.135486328125,0.30184093749999996,9.609879999999999,0.04,0.0,0.0,0.0,0.04,0.0,0.0,0.0,0.04
1614727209.5535767,2855,1614727209,553170204,base_imu_link,-0.0012770826871846518,0.11155553295769302,0.15698178864439866,0.981280005992347,0.0025,0.0,0.0,0.0,0.0025,0.0,0.0,0.0,0.0025,0.03,-0.06,-0.04,0.02,0.0,0.0,0.0,0.02,0.0,0.0,0.0,0.02,-2.1833671875,0.21565539062499997,9.547443359374999,0.04,0.0,0.0,0.0,0.04,0.0,0.0,0.0,0.04
1614727209.5737064,2856,1614727209,573234081,base_imu_link,-0.0021553538868248276,0.11155268411501632,0.16011922653193558,0.9807717300224209,0.0025,0.0,0.0,0.0,0.0025,0.0,0.0,0.0,0.0025,0.03,-0.05,-0.06,0.02,0.0,0.0,0.0,0.02,0.0,0.0,0.0,0.02,-2.1929433593749996,0.229828125,9.51411828125,0.04,0.0,0.0,0.0,0.04,0.0,0.0,0.0,0.04
1614727209.593676,2857,1614727209,593229770,base_imu_link,-0.002986708632211073,0.1119021238889769,0.1630624594771504,0.9802446778993218,0.0025,0.0,0.0,0.0,0.0025,0.0,0.0,0.0,0.0025,0.03,-0.02,-0.06,0.02,0.0,0.0,0.0,0.02,0.0,0.0,0.0,0.02,-2.12591015625,0.253960078125,9.51411828125,0.04,0.0,0.0,0.0,0.04,0.0,0.0,0.0,0.04
1614727209.6137195,2858,1614727209,613302230,base_imu_link,-0.003616678624855636,0.11175032887168937,0.16575566695346022,0.9798080641154202,0.0025,0.0,0.0,0.0,0.0025,0.0,0.0,0.0,0.0025,0.02,-0.03,-0.06,0.02,0.0,0.0,0.0,0.02,0.0,0.0,0.0,0.02,-2.0014199218749997,0.23480773437499997,9.652781249999999,0.04,0.0,0.0,0.0,0.04,0.0,0.0,0.0,0.04
1614727209.6337,2859,1614727209,633271455,base_imu_link,-0.004305589046641956,0.11071082384325046,0.16883812557594005,0.9793968872417931,0.0025,0.0,0.0,0.0,0.0025,0.0,0.0,0.0,0.0025,0.01,-0.04,-0.07,0.02,0.0,0.0,0.0,0.02,0.0,0.0,0.0,0.02,-1.939366328125,0.20607921875,9.67653015625,0.04,0.0,0.0,0.0,0.04,0.0,0.0,0.0,0.04
1614727209.6539233,2860,1614727209,653506517,base_imu_link,-0.005168234576947784,0.10919604914770395,0.17196140676410482,0.9790192984745499,0.0025,0.0,0.0,0.0,0.0025,0.0,0.0,0.0,0.0025,0.0,-0.06,-0.09,0.02,0.0,0.0,0.0,0.02,0.0,0.0,0.0,0.02,-1.939366328125,0.22523156249999998,9.66733703125,0.04,0.0,0.0,0.0,0.04,0.0,0.0,0.0,0.04
1614727209.6739929,2861,1614727209,673547744,base_imu_link,-0.005869871813328511,0.10770623209225226,0.1752333661717945,0.9786001121773319,0.0025,0.0,0.0,0.0,0.0025,0.0,0.0,0.0,0.0025,0.0,-0.08,-0.1,0.02,0.0,0.0,0.0,0.02,0.0,0.0,0.0,0.02,-1.9248105468749999,0.335166015625,9.6573778125,0.04,0.0,0.0,0.0,0.04,0.0,0.0,0.0,0.04
1614727209.693982,2862,1614727209,693546533,base_imu_link,-0.005710315028362547,0.10635741258408528,0.1776505439033558,0.9783127196053096,0.0025,0.0,0.0,0.0,0.0025,0.0,0.0,0.0,0.0025,0.01,-0.09,-0.09,0.02,0.0,0.0,0.0,0.02,0.0,0.0,0.0,0.02,-1.9489425,0.36389453125,9.571575312499998,0.04,0.0,0.0,0.0,0.04,0.0,0.0,0.0,0.04
1614727209.714231,2863,1614727209,713811397,base_imu_link,-0.005412143793682003,0.10529762984784356,0.17995524452888975,0.9780077851502669,0.0025,0.0,0.0,0.0,0.0025,0.0,0.0,0.0,0.0025,0.02,-0.09,-0.08,0.02,0.0,0.0,0.0,0.02,0.0,0.0,0.0,0.02,-2.00639953125,0.5266894531249999,9.494965937499998,0.04,0.0,0.0,0.0,0.04,0.0,0.0,0.0,0.04
1614727209.7338576,2864,1614727209,733513355,base_imu_link,-0.004400624011536427,0.1050925902078118,0.18307444003194404,0.9774558462655548,0.0025,0.0,0.0,0.0,0.0025,0.0,0.0,0.0,0.0025,0.02,-0.07,-0.05,0.02,0.0,0.0,0.0,0.02,0.0,0.0,0.0,0.02,-2.078029296875,0.5266894531249999,9.4183565625,0.04,0.0,0.0,0.0,0.04,0.0,0.0,0.0,0.04
1614727209.7543013,2865,1614727209,753826618,base_imu_link,-0.0034642877989017676,0.10550633615972269,0.18658782624492065,0.9767504260748461,0.0025,0.0,0.0,0.0,0.0025,0.0,0.0,0.0,0.0025,0.04,-0.06,-0.03,0.02,0.0,0.0,0.0,0.02,0.0,0.0,0.0,0.02,-2.1067578124999997,0.5745703124999999,9.470833984375,0.04,0.0,0.0,0.0,0.04,0.0,0.0,0.0,0.04
1614727209.7743616,2866,1614727209,773944377,base_imu_link,-0.002290956288983046,0.10614874062222272,0.1898929162852116,0.9760470668611713,0.0025,0.0,0.0,0.0,0.0025,0.0,0.0,0.0,0.0025,0.05,-0.04,-0.01,0.02,0.0,0.0,0.0,0.02,0.0,0.0,0.0,0.02,-2.12131359375,0.6082784375,9.509138671874998,0.04,0.0,0.0,0.0,0.04,0.0,0.0,0.0,0.04
1614727209.7946417,2867,1614727209,794215440,base_imu_link,-0.0009201717595894235,0.10702102962517887,0.19332889016693927,0.9752792383357286,0.0025,0.0,0.0,0.0,0.0025,0.0,0.0,0.0,0.0025,0.06,-0.03,0.02,0.02,0.0,0.0,0.0,0.02,0.0,0.0,0.0,0.02,-2.130889765625,0.464635859375,9.566595703125,0.04,0.0,0.0,0.0,0.04,0.0,0.0,0.0,0.04
1614727209.8143904,2868,1614727209,813972473,base_imu_link,-0.0006723226908433612,0.10759616139556273,0.19714007900817787,0.9744528738137052,0.0025,0.0,0.0,0.0,0.0025,0.0,0.0,0.0,0.0025,0.05,-0.03,0.03,0.02,0.0,0.0,0.0,0.02,0.0,0.0,0.0,0.02,-2.111737421875,0.330569453125,9.681509765625,0.04,0.0,0.0,0.0,0.04,0.0,0.0,0.0,0.04
1614727209.8344293,2869,1614727209,834040880,base_imu_link,-0.0011498286707174767,0.10774565446253782,0.2003724712947972,0.9737763729859557,0.0025,0.0,0.0,0.0,0.0025,0.0,0.0,0.0,0.0025,0.04,-0.03,0.03,0.02,0.0,0.0,0.0,0.02,0.0,0.0,0.0,0.02,-2.08300890625,0.229828125,9.74854296875,0.04,0.0,0.0,0.0,0.04,0.0,0.0,0.0,0.04
1614727209.8545375,2870,1614727209,854114055,base_imu_link,-0.002271395375915263,0.1075813083763447,0.2036850853740004,0.9731050759539106,0.0025,0.0,0.0,0.0,0.0025,0.0,0.0,0.0,0.0025,0.03,-0.03,0.01,0.02,0.0,0.0,0.0,0.02,0.0,0.0,0.0,0.02,-2.068453125,0.22523156249999998,9.8014034375,0.04,0.0,0.0,0.0,0.04,0.0,0.0,0.0,0.04
1614727209.8747244,2871,1614727209,874309778,base_imu_link,-0.003373127971760509,0.10741123439618461,0.20682559932604289,0.9724580300437635,0.0025,0.0,0.0,0.0,0.0025,0.0,0.0,0.0,0.0025,0.02,-0.02,0.01,0.02,0.0,0.0,0.0,0.02,0.0,0.0,0.0,0.02,-2.078029296875,0.22025195312499998,9.815576171875,0.04,0.0,0.0,0.0,0.04,0.0,0.0,0.0,0.04
1614727209.8944461,2872,1614727209,894003868,base_imu_link,-0.004465043977154866,0.10722084926910642,0.20912514979991018,0.9719827285427755,0.0025,0.0,0.0,0.0,0.0025,0.0,0.0,0.0,0.0025,0.02,-0.01,-0.01,0.02,0.0,0.0,0.0,0.02,0.0,0.0,0.0,0.02,-2.1163339843749998,0.17237109374999998,9.767695312499999,0.04,0.0,0.0,0.0,0.04,0.0,0.0,0.0,0.04
1614727209.9146478,2873,1614727209,914260149,base_imu_link,-0.005791363454792291,0.10732841996860679,0.21134350059879048,0.9714839139846968,0.0025,0.0,0.0,0.0,0.0025,0.0,0.0,0.0,0.0025,0.01,-0.01,-0.03,0.02,0.0,0.0,0.0,0.02,0.0,0.0,0.0,0.02,-2.1596182812499998,0.253960078125,9.652781249999999,0.04,0.0,0.0,0.0,0.04,0.0,0.0,0.0,0.04
1614727209.9349072,2874,1614727209,934481143,base_imu_link,-0.00661022355727903,0.10798494470136716,0.21339344019019008,0.9709576696984072,0.0025,0.0,0.0,0.0,0.0025,0.0,0.0,0.0,0.0025,0.02,0.01,-0.03,0.02,0.0,0.0,0.0,0.02,0.0,0.0,0.0,0.02,-2.178770625,0.3064375,9.571575312499998,0.04,0.0,0.0,0.0,0.04,0.0,0.0,0.0,0.04
1614727209.954944,2875,1614727209,954521179,base_imu_link,-0.007433796797640835,0.1089221699168774,0.21642929246442966,0.9701747579323617,0.0025,0.0,0.0,0.0,0.0025,0.0,0.0,0.0,0.0025,0.01,0.02,-0.02,0.02,0.0,0.0,0.0,0.02,0.0,0.0,0.0,0.02,-2.0971816406249997,0.28268859375,9.609879999999999,0.04,0.0,0.0,0.0,0.04,0.0,0.0,0.0,0.04
1614727209.9749517,2876,1614727209,974563360,base_imu_link,-0.008116614224078205,0.1093374146668612,0.21847787389179013,0.96966327606403,0.0025,0.0,0.0,0.0,0.0025,0.0,0.0,0.0,0.0025,0.0,0.02,-0.03,0.02,0.0,0.0,0.0,0.02,0.0,0.0,0.0,0.02,-2.0109960937499998,0.253960078125,9.62903234375,0.04,0.0,0.0,0.0,0.04,0.0,0.0,0.0,0.04
1614727209.994957,2877,1614727209,994581699,base_imu_link,-0.008824474609109446,0.10920701663254274,0.22031171765017843,0.9692567787909047,0.0025,0.0,0.0,0.0,0.0025,0.0,0.0,0.0,0.0025,0.0,0.02,-0.03,0.02,0.0,0.0,0.0,0.02,0.0,0.0,0.0,0.02,-1.9585186718749998,0.32558984375,9.599920781249999,0.04,0.0,0.0,0.0,0.04,0.0,0.0,0.0,0.04
1614727210.015072,2878,1614727210,14649629,base_imu_link,-0.009126158041975847,0.10891148927166343,0.2227838675304225,0.9687220184925129,0.0025,0.0,0.0,0.0,0.0025,0.0,0.0,0.0,0.0025,0.0,0.02,-0.03,0.02,0.0,0.0,0.0,0.02,0.0,0.0,0.0,0.02,-1.939366328125,0.31601367187499996,9.561616093749999,0.04,0.0,0.0,0.0,0.04,0.0,0.0,0.0,0.04
1614727210.0352595,2879,1614727210,34847497,base_imu_link,-0.009565973873241373,0.10849222199087089,0.22519258304469794,0.968207741372169,0.0025,0.0,0.0,0.0,0.0025,0.0,0.0,0.0,0.0025,-0.01,0.02,-0.03,0.02,0.0,0.0,0.0,0.02,0.0,0.0,0.0,0.02,-1.89148546875,0.330569453125,9.55242296875,0.04,0.0,0.0,0.0,0.04,0.0,0.0,0.0,0.04
1614727210.0552645,2880,1614727210,54891824,base_imu_link,-0.009841408666925894,0.10792597110113193,0.227259570562832,0.9677852132704476,0.0025,0.0,0.0,0.0,0.0025,0.0,0.0,0.0,0.0025,-0.01,0.01,-0.03,0.02,0.0,0.0,0.0,0.02,0.0,0.0,0.0,0.02,-1.881909296875,0.35929796875,9.576171875,0.04,0.0,0.0,0.0,0.04,0.0,0.0,0.0,0.04
1614727210.0749826,2881,1614727210,74567794,base_imu_link,-0.009773718612597798,0.1072669390684984,0.22963265143018327,0.9672988801836281,0.0025,0.0,0.0,0.0,0.0025,0.0,0.0,0.0,0.0025,0.0,-0.0,-0.02,0.02,0.0,0.0,0.0,0.02,0.0,0.0,0.0,0.02,-1.843604609375,0.37347070312499997,9.561616093749999,0.04,0.0,0.0,0.0,0.04,0.0,0.0,0.0,0.04
1614727210.0951478,2882,1614727210,94756364,base_imu_link,-0.0095754472800483,0.10637450912869781,0.23217476749462576,0.9667924554710965,0.0025,0.0,0.0,0.0,0.0025,0.0,0.0,0.0,0.0025,0.01,-0.01,-0.01,0.02,0.0,0.0,0.0,0.02,0.0,0.0,0.0,0.02,-1.8577773437499998,0.430927734375,9.5378671875,0.04,0.0,0.0,0.0,0.04,0.0,0.0,0.0,0.04
1614727210.115706,2883,1614727210,115218400,base_imu_link,-0.00904676976359111,0.10565074059415851,0.23459134409955518,0.966293422435605,0.0025,0.0,0.0,0.0,0.0025,0.0,0.0,0.0,0.0025,0.01,-0.02,0.01,0.02,0.0,0.0,0.0,0.02,0.0,0.0,0.0,0.02,-1.8769296874999999,0.45965625,9.55242296875,0.04,0.0,0.0,0.0,0.04,0.0,0.0,0.0,0.04
1614727210.1354887,2884,1614727210,135067224,base_imu_link,-0.008230088902211916,0.10516648366920314,0.23629860045495082,0.9659374968248973,0.0025,0.0,0.0,0.0,0.0025,0.0,0.0,0.0,0.0025,0.02,-0.02,0.02,0.02,0.0,0.0,0.0,0.02,0.0,0.0,0.0,0.02,-1.9106378124999999,0.36389453125,9.619073125,0.04,0.0,0.0,0.0,0.04,0.0,0.0,0.0,0.04
1614727210.1554854,2885,1614727210,155099153,base_imu_link,-0.008094757471989011,0.10451860481254294,0.23816350576075038,0.9655508690241328,0.0025,0.0,0.0,0.0,0.0025,0.0,0.0,0.0,0.0025,0.02,-0.03,0.02,0.02,0.0,0.0,0.0,0.02,0.0,0.0,0.0,0.02,-1.943962890625,0.31601367187499996,9.638225468749999,0.04,0.0,0.0,0.0,0.04,0.0,0.0,0.0,0.04
1614727210.1754818,2886,1614727210,175120115,base_imu_link,-0.008288415889910847,0.10397416098707504,0.24038469151639397,0.9650574470432515,0.0025,0.0,0.0,0.0,0.0025,0.0,0.0,0.0,0.0025,0.01,-0.04,0.02,0.02,0.0,0.0,0.0,0.02,0.0,0.0,0.0,0.02,-1.977671015625,0.35929796875,9.6573778125,0.04,0.0,0.0,0.0,0.04,0.0,0.0,0.0,0.04
1614727210.195591,2887,1614727210,195172548,base_imu_link,-0.008438420514901242,0.10361871025599159,0.24258836688791421,0.9645428140807194,0.0025,0.0,0.0,0.0,0.0025,0.0,0.0,0.0,0.0025,0.01,-0.05,0.01,0.02,0.0,0.0,0.0,0.02,0.0,0.0,0.0,0.02,-2.0014199218749997,0.349721796875,9.681509765625,0.04,0.0,0.0,0.0,0.04,0.0,0.0,0.0,0.04
1614727210.215787,2888,1614727210,215401649,base_imu_link,-0.008493713996665531,0.10328520645046393,0.2446977743239212,0.9640451349350545,0.0025,0.0,0.0,0.0,0.0025,0.0,0.0,0.0,0.0025,0.01,-0.05,0.01,0.02,0.0,0.0,0.0,0.02,0.0,0.0,0.0,0.02,-2.020572265625,0.43590734375,9.63362890625,0.04,0.0,0.0,0.0,0.04,0.0,0.0,0.0,0.04
1614727210.235838,2889,1614727210,235421657,base_imu_link,-0.008037341966672246,0.103439406050556,0.2466441733578946,0.9635363730335351,0.0025,0.0,0.0,0.0,0.0025,0.0,0.0,0.0,0.0025,0.03,-0.05,0.01,0.02,0.0,0.0,0.0,0.02,0.0,0.0,0.0,0.02,-2.0971816406249997,0.45965625,9.5807684375,0.04,0.0,0.0,0.0,0.04,0.0,0.0,0.0,0.04
1614727210.255868,2890,1614727210,255455732,base_imu_link,-0.00766065714135181,0.10393240171074454,0.2484900264437534,0.9630119817347974,0.0025,0.0,0.0,0.0,0.0025,0.0,0.0,0.0,0.0025,0.02,-0.05,0.02,0.02,0.0,0.0,0.0,0.02,0.0,0.0,0.0,0.02,-2.154638671875,0.42633117187499997,9.557019531249999,0.04,0.0,0.0,0.0,0.04,0.0,0.0,0.0,0.04
1614727210.2756786,2891,1614727210,275291442,base_imu_link,-0.007674186960763267,0.10467814814153022,0.25001904005629655,0.9625352314411556,0.0025,0.0,0.0,0.0,0.0025,0.0,0.0,0.0,0.0025,0.01,-0.05,0.02,0.02,0.0,0.0,0.0,0.02,0.0,0.0,0.0,0.02,-2.1596182812499998,0.368874140625,9.59072765625,0.04,0.0,0.0,0.0,0.04,0.0,0.0,0.0,0.04
1614727210.2958684,2892,1614727210,295482873,base_imu_link,-0.00802215140513374,0.10525096992557985,0.2517551482173426,0.962017267912911,0.0025,0.0,0.0,0.0,0.0025,0.0,0.0,0.0,0.0025,0.01,-0.04,0.02,0.02,0.0,0.0,0.0,0.02,0.0,0.0,0.0,0.02,-2.130889765625,0.3064375,9.585748046874999,0.04,0.0,0.0,0.0,0.04,0.0,0.0,0.0,0.04
1614727210.3161314,2893,1614727210,315718173,base_imu_link,-0.008772450171792154,0.10572899642316025,0.2541143220005047,0.9613377839175772,0.0025,0.0,0.0,0.0,0.0025,0.0,0.0,0.0,0.0025,0.01,-0.03,0.02,0.02,0.0,0.0,0.0,0.02,0.0,0.0,0.0,0.02,-2.073432734375,0.39760265625,9.6573778125,0.04,0.0,0.0,0.0,0.04,0.0,0.0,0.0,0.04
1614727210.3359766,2894,1614727210,335587024,base_imu_link,-0.00875071919652557,0.10594801276143963,0.25575616971107096,0.9608783612716895,0.0025,0.0,0.0,0.0,0.0025,0.0,0.0,0.0,0.0025,0.02,-0.03,0.02,0.02,0.0,0.0,0.0,0.02,0.0,0.0,0.0,0.02,-2.0109960937499998,0.3784503125,9.738966796875,0.04,0.0,0.0,0.0,0.04,0.0,0.0,0.0,0.04
1614727210.3560152,2895,1614727210,355634927,base_imu_link,-0.00873209141921025,0.10563805667472564,0.25793316982587794,0.9603305844681866,0.0025,0.0,0.0,0.0,0.0025,0.0,0.0,0.0,0.0025,0.02,-0.03,0.03,0.02,0.0,0.0,0.0,0.02,0.0,0.0,0.0,0.02,-1.99184375,0.28728515624999995,9.74854296875,0.04,0.0,0.0,0.0,0.04,0.0,0.0,0.0,0.04
1614727210.376011,2896,1614727210,375597715,base_imu_link,-0.009179066331707664,0.10518029131538038,0.2590843769729221,0.9600667355286518,0.0025,0.0,0.0,0.0,0.0025,0.0,0.0,0.0,0.0025,0.01,-0.03,0.02,0.02,0.0,0.0,0.0,0.02,0.0,0.0,0.0,0.02,-2.0014199218749997,0.201099609375,9.71483484375,0.04,0.0,0.0,0.0,0.04,0.0,0.0,0.0,0.04
1614727210.3961077,2897,1614727210,395694255,base_imu_link,-0.010330511167796735,0.1047227717680155,0.2609611065251527,0.9595966457285082,0.0025,0.0,0.0,0.0,0.0025,0.0,0.0,0.0,0.0025,0.0,-0.03,0.02,0.02,0.0,0.0,0.0,0.02,0.0,0.0,0.0,0.02,-2.00639953125,0.14862218749999997,9.652781249999999,0.04,0.0,0.0,0.0,0.04,0.0,0.0,0.0,0.04
1614727210.4163473,2898,1614727210,415928125,base_imu_link,-0.011736453568954305,0.10427810757980772,0.2626924379769138,0.9591564079788776,0.0025,0.0,0.0,0.0,0.0025,0.0,0.0,0.0,0.0025,-0.01,-0.02,0.01,0.02,0.0,0.0,0.0,0.02,0.0,0.0,0.0,0.02,-2.0014199218749997,0.26353624999999997,9.648184687499999,0.04,0.0,0.0,0.0,0.04,0.0,0.0,0.0,0.04
1614727210.4365773,2899,1614727210,436157464,base_imu_link,-0.012411319723074035,0.10412011223704751,0.26433697109974447,0.9587131620460257,0.0025,0.0,0.0,0.0,0.0025,0.0,0.0,0.0,0.0025,-0.01,-0.02,0.01,0.02,0.0,0.0,0.0,0.02,0.0,0.0,0.0,0.02,-1.9822675781249999,0.43590734375,9.643205078125,0.04,0.0,0.0,0.0,0.04,0.0,0.0,0.0,0.04
1614727210.4564614,2900,1614727210,456018686,base_imu_link,-0.01207153646333338,0.10406731485366601,0.2662137829232202,0.9582037850938968,0.0025,0.0,0.0,0.0,0.0025,0.0,0.0,0.0,0.0025,-0.01,-0.02,0.02,0.02,0.0,0.0,0.0,0.02,0.0,0.0,0.0,0.02,-1.9726914062499998,0.3784503125,9.59072765625,0.04,0.0,0.0,0.0,0.04,0.0,0.0,0.0,0.04
1614727210.4763994,2901,1614727210,475996017,base_imu_link,-0.011996904706891708,0.10403062700652264,0.2680295100273881,0.9577023988048489,0.0025,0.0,0.0,0.0,0.0025,0.0,0.0,0.0,0.0025,0.01,-0.02,0.01,0.02,0.0,0.0,0.0,0.02,0.0,0.0,0.0,0.02,-1.9585186718749998,0.27311242187499996,9.561616093749999,0.04,0.0,0.0,0.0,0.04,0.0,0.0,0.0,0.04
1614727210.4965358,2902,1614727210,496040821,base_imu_link,-0.012479705737472167,0.10383301628603867,0.26965719173241703,0.9572606544826942,0.0025,0.0,0.0,0.0,0.0025,0.0,0.0,0.0,0.0025,0.01,-0.01,0.0,0.02,0.0,0.0,0.0,0.02,0.0,0.0,0.0,0.02,-1.9726914062499998,0.2681328125,9.5378671875,0.04,0.0,0.0,0.0,0.04,0.0,0.0,0.0,0.04
1614727210.5163035,2903,1614727210,515886545,base_imu_link,-0.013018850177989332,0.10379977476667682,0.2713599201915167,0.9567757887886189,0.0025,0.0,0.0,0.0,0.0025,0.0,0.0,0.0,0.0025,0.0,-0.01,-0.0,0.02,0.0,0.0,0.0,0.02,0.0,0.0,0.0,0.02,-1.9631152343749998,0.32558984375,9.599920781249999,0.04,0.0,0.0,0.0,0.04,0.0,0.0,0.0,0.04
1614727210.5367074,2904,1614727210,536308526,base_imu_link,-0.01320303663165772,0.10369006814836883,0.2732835763991532,0.956237489571277,0.0025,0.0,0.0,0.0,0.0025,0.0,0.0,0.0,0.0025,0.0,-0.01,0.0,0.02,0.0,0.0,0.0,0.02,0.0,0.0,0.0,0.02,-1.9152343749999998,0.42135156249999994,9.67193359375,0.04,0.0,0.0,0.0,0.04,0.0,0.0,0.0,0.04
1614727210.556592,2905,1614727210,556179285,base_imu_link,-0.012689983921351157,0.10340307566069264,0.2742498638466739,0.9559988391374049,0.0025,0.0,0.0,0.0,0.0025,0.0,0.0,0.0,0.0025,0.01,-0.02,0.01,0.02,0.0,0.0,0.0,0.02,0.0,0.0,0.0,0.02,-1.862756953125,0.368874140625,9.662357421874999,0.04,0.0,0.0,0.0,0.04,0.0,0.0,0.0,0.04
1614727210.5766213,2906,1614727210,576208591,base_imu_link,-0.01242164660027649,0.10268679166757723,0.2753511698512583,0.9557629720669769,0.0025,0.0,0.0,0.0,0.0025,0.0,0.0,0.0,0.0025,0.01,-0.03,0.01,0.02,0.0,0.0,0.0,0.02,0.0,0.0,0.0,0.02,-1.8340284375,0.31601367187499996,9.6573778125,0.04,0.0,0.0,0.0,0.04,0.0,0.0,0.0,0.04
1614727210.5966625,2907,1614727210,596216678,base_imu_link,-0.01230513428333822,0.10175204943267756,0.2768114307605223,0.9554425864000575,0.0025,0.0,0.0,0.0,0.0025,0.0,0.0,0.0,0.0025,0.01,-0.04,0.0,0.02,0.0,0.0,0.0,0.02,0.0,0.0,0.0,0.02,-1.881909296875,0.340145625,9.609879999999999,0.04,0.0,0.0,0.0,0.04,0.0,0.0,0.0,0.04
1614727210.6165023,2908,1614727210,616053819,base_imu_link,-0.012181158272375984,0.10126372110148406,0.2778261930057408,0.9552014890334715,0.0025,0.0,0.0,0.0,0.0025,0.0,0.0,0.0,0.0025,0.01,-0.04,-0.0,0.02,0.0,0.0,0.0,0.02,0.0,0.0,0.0,0.02,-1.939366328125,0.36389453125,9.55242296875,0.04,0.0,0.0,0.0,0.04,0.0,0.0,0.0,0.04
1614727210.6370776,2909,1614727210,636648654,base_imu_link,-0.012164730389686577,0.10129427411014333,0.279225281759877,0.9547904122859439,0.0025,0.0,0.0,0.0,0.0025,0.0,0.0,0.0,0.0025,0.01,-0.02,0.0,0.02,0.0,0.0,0.0,0.02,0.0,0.0,0.0,0.02,-1.943962890625,0.388026484375,9.59532421875,0.04,0.0,0.0,0.0,0.04,0.0,0.0,0.0,0.04
1614727210.6569467,2910,1614727210,656501293,base_imu_link,-0.012089913971035236,0.1014327829228918,0.280610979541512,0.9543703173765641,0.0025,0.0,0.0,0.0,0.0025,0.0,0.0,0.0,0.0025,0.01,-0.02,0.01,0.02,0.0,0.0,0.0,0.02,0.0,0.0,0.0,0.02,-1.9248105468749999,0.36389453125,9.652781249999999,0.04,0.0,0.0,0.0,0.04,0.0,0.0,0.0,0.04
1614727210.6769469,2911,1614727210,676541328,base_imu_link,-0.012089648708984338,0.10127513437609305,0.2818590502902862,0.9540192153833462,0.0025,0.0,0.0,0.0,0.0025,0.0,0.0,0.0,0.0025,0.01,-0.03,0.01,0.02,0.0,0.0,0.0,0.02,0.0,0.0,0.0,0.02,-1.8960820312499997,0.35929796875,9.67193359375,0.04,0.0,0.0,0.0,0.04,0.0,0.0,0.0,0.04
1614727210.6969926,2912,1614727210,696587800,base_imu_link,-0.012093210139691557,0.10085878101071269,0.2838675067002555,0.9534676183286619,0.0025,0.0,0.0,0.0,0.0025,0.0,0.0,0.0,0.0025,0.01,-0.03,0.01,0.02,0.0,0.0,0.0,0.02,0.0,0.0,0.0,0.02,-1.89148546875,0.32558984375,9.67653015625,0.04,0.0,0.0,0.0,0.04,0.0,0.0,0.0,0.04
1614727210.7170746,2913,1614727210,716635704,base_imu_link,-0.012129961884299212,0.10040891017712816,0.2846448308867103,0.9532828725153952,0.0025,0.0,0.0,0.0,0.0025,0.0,0.0,0.0,0.0025,0.01,-0.04,0.02,0.02,0.0,0.0,0.0,0.02,0.0,0.0,0.0,0.02,-1.9010616406249998,0.37347070312499997,9.681509765625,0.04,0.0,0.0,0.0,0.04,0.0,0.0,0.0,0.04
1614727210.7370768,2914,1614727210,736663579,base_imu_link,-0.011953685540257601,0.10021649479899022,0.28604437924915327,0.952886339849709,0.0025,0.0,0.0,0.0,0.0025,0.0,0.0,0.0,0.0025,0.02,-0.03,0.01,0.02,0.0,0.0,0.0,0.02,0.0,0.0,0.0,0.02,-1.920213984375,0.32099328125,9.638225468749999,0.04,0.0,0.0,0.0,0.04,0.0,0.0,0.0,0.04
1614727210.757179,2915,1614727210,756729125,base_imu_link,-0.012200378170627402,0.09998454845509784,0.2873168774669698,0.9525246730480813,0.0025,0.0,0.0,0.0,0.0025,0.0,0.0,0.0,0.0025,0.01,-0.04,0.02,0.02,0.0,0.0,0.0,0.02,0.0,0.0,0.0,0.02,-1.93438671875,0.34474218749999996,9.648184687499999,0.04,0.0,0.0,0.0,0.04,0.0,0.0,0.0,0.04
1614727210.7771268,2916,1614727210,776714324,base_imu_link,-0.01217908935378268,0.09991599528834086,0.2881432550780335,0.9522824834160755,0.0025,0.0,0.0,0.0,0.0025,0.0,0.0,0.0,0.0025,0.01,-0.04,0.02,0.02,0.0,0.0,0.0,0.02,0.0,0.0,0.0,0.02,-1.9822675781249999,0.34474218749999996,9.662357421874999,0.04,0.0,0.0,0.0,0.04,0.0,0.0,0.0,0.04
1614727210.79728,2917,1614727210,796795368,base_imu_link,-0.012378421506937399,0.10006376795785214,0.2895476955489657,0.951838299831099,0.0025,0.0,0.0,0.0,0.0025,0.0,0.0,0.0,0.0025,0.01,-0.03,0.02,0.02,0.0,0.0,0.0,0.02,0.0,0.0,0.0,0.02,-1.9872471875,0.31601367187499996,9.643205078125,0.04,0.0,0.0,0.0,0.04,0.0,0.0,0.0,0.04
1614727210.8174703,2918,1614727210,817033529,base_imu_link,-0.012608784106140147,0.10019239067852598,0.29046200040521636,0.951543130779728,0.0025,0.0,0.0,0.0,0.0025,0.0,0.0,0.0,0.0025,0.01,-0.04,0.02,0.02,0.0,0.0,0.0,0.02,0.0,0.0,0.0,0.02,-1.9680948437499999,0.43590734375,9.700662109375,0.04,0.0,0.0,0.0,0.04,0.0,0.0,0.0,0.04
1614727210.8377988,2919,1614727210,837375402,base_imu_link,-0.012150640325974519,0.10026894287815938,0.29181613471082185,0.9511266185719969,0.0025,0.0,0.0,0.0,0.0025,0.0,0.0,0.0,0.0025,0.02,-0.05,0.02,0.02,0.0,0.0,0.0,0.02,0.0,0.0,0.0,0.02,-1.9585186718749998,0.388026484375,9.648184687499999,0.04,0.0,0.0,0.0,0.04,0.0,0.0,0.0,0.04
1614727210.8575618,2920,1614727210,857142686,base_imu_link,-0.012007101250879292,0.1002467970482357,0.29303873849546147,0.9507548090554734,0.0025,0.0,0.0,0.0,0.0025,0.0,0.0,0.0,0.0025,0.02,-0.04,0.03,0.02,0.0,0.0,0.0,0.02,0.0,0.0,0.0,0.02,-1.9872471875,0.349721796875,9.63362890625,0.04,0.0,0.0,0.0,0.04,0.0,0.0,0.0,0.04
1614727210.8777452,2921,1614727210,877286434,base_imu_link,-0.012181191468257972,0.10048377147539189,0.29393896767887095,0.950449637552866,0.0025,0.0,0.0,0.0,0.0025,0.0,0.0,0.0,0.0025,0.01,-0.03,0.03,0.02,0.0,0.0,0.0,0.02,0.0,0.0,0.0,0.02,-2.015975703125,0.330569453125,9.576171875,0.04,0.0,0.0,0.0,0.04,0.0,0.0,0.0,0.04
1614727210.8976052,2922,1614727210,897188186,base_imu_link,-0.012569244422977164,0.10102275701589386,0.2950799251077004,0.9500338175338692,0.0025,0.0,0.0,0.0,0.0025,0.0,0.0,0.0,0.0025,0.01,-0.01,0.03,0.02,0.0,0.0,0.0,0.02,0.0,0.0,0.0,0.02,-1.9872471875,0.335166015625,9.619073125,0.04,0.0,0.0,0.0,0.04,0.0,0.0,0.0,0.04
1614727210.9175837,2923,1614727210,917184114,base_imu_link,-0.01289745956655617,0.10139648645273135,0.2961456926334601,0.9496579051460681,0.0025,0.0,0.0,0.0,0.0025,0.0,0.0,0.0,0.0025,0.01,-0.01,0.02,0.02,0.0,0.0,0.0,0.02,0.0,0.0,0.0,0.02,-1.920213984375,0.330569453125,9.71483484375,0.04,0.0,0.0,0.0,0.04,0.0,0.0,0.0,0.04
1614727210.9376435,2924,1614727210,937222719,base_imu_link,-0.013199931484903647,0.10105341992520844,0.29742742255497057,0.949289679941018,0.0025,0.0,0.0,0.0,0.0025,0.0,0.0,0.0,0.0025,0.0,-0.03,0.01,0.02,0.0,0.0,0.0,0.02,0.0,0.0,0.0,0.02,-1.9106378124999999,0.3064375,9.6956825,0.04,0.0,0.0,0.0,0.04,0.0,0.0,0.0,0.04
1614727210.9577715,2925,1614727210,957274675,base_imu_link,-0.013496530099820405,0.10060919459928912,0.2981416786324592,0.9491086202851424,0.0025,0.0,0.0,0.0,0.0025,0.0,0.0,0.0,0.0025,0.0,-0.03,0.01,0.02,0.0,0.0,0.0,0.02,0.0,0.0,0.0,0.02,-1.9106378124999999,0.35431835937499995,9.604900390625,0.04,0.0,0.0,0.0,0.04,0.0,0.0,0.0,0.04
1614727210.977969,2926,1614727210,977580785,base_imu_link,-0.013496500854125945,0.10043667392176964,0.2986467576953893,0.948968088564762,0.0025,0.0,0.0,0.0,0.0025,0.0,0.0,0.0,0.0025,0.0,-0.03,0.01,0.02,0.0,0.0,0.0,0.02,0.0,0.0,0.0,0.02,-1.881909296875,0.38304687499999995,9.576171875,0.04,0.0,0.0,0.0,0.04,0.0,0.0,0.0,0.04
1614727210.9979343,2927,1614727210,997503757,base_imu_link,-0.0134485004924106,0.10028559507539389,0.2994741967496318,0.9487239549711195,0.0025,0.0,0.0,0.0,0.0025,0.0,0.0,0.0,0.0025,-0.0,-0.03,0.01,0.02,0.0,0.0,0.0,0.02,0.0,0.0,0.0,0.02,-1.838625,0.3064375,9.614476562499998,0.04,0.0,0.0,0.0,0.04,0.0,0.0,0.0,0.04
1614727211.0180435,2928,1614727211,17628908,base_imu_link,-0.01373832037121913,0.09956761771338928,0.30012577196116363,0.9485895155761389,0.0025,0.0,0.0,0.0,0.0025,0.0,0.0,0.0,0.0025,-0.01,-0.03,0.01,0.02,0.0,0.0,0.0,0.02,0.0,0.0,0.0,0.02,-1.8340284375,0.27311242187499996,9.604900390625,0.04,0.0,0.0,0.0,0.04,0.0,0.0,0.0,0.04
1614727211.0382607,2929,1614727211,37790775,base_imu_link,-0.014228612740983783,0.09896459248231103,0.300620361372586,0.9484887739675643,0.0025,0.0,0.0,0.0,0.0025,0.0,0.0,0.0,0.0025,-0.01,-0.03,0.0,0.02,0.0,0.0,0.0,0.02,0.0,0.0,0.0,0.02,-1.8052999218749999,0.392623046875,9.63362890625,0.04,0.0,0.0,0.0,0.04,0.0,0.0,0.0,0.04
1614727211.058236,2930,1614727211,57799339,base_imu_link,-0.01391025357757519,0.09826077209368275,0.3014666498672775,0.9482980462548478,0.0025,0.0,0.0,0.0,0.0025,0.0,0.0,0.0,0.0025,-0.01,-0.04,0.01,0.02,0.0,0.0,0.0,0.02,0.0,0.0,0.0,0.02,-1.77657140625,0.4550596875,9.638225468749999,0.04,0.0,0.0,0.0,0.04,0.0,0.0,0.0,0.04
1614727211.0785182,2931,1614727211,77965259,base_imu_link,-0.013176953450297828,0.09768943177954748,0.30227030207621947,0.9481117061291402,0.0025,0.0,0.0,0.0,0.0025,0.0,0.0,0.0,0.0025,-0.0,-0.04,0.03,0.02,0.0,0.0,0.0,0.02,0.0,0.0,0.0,0.02,-1.7478428906249999,0.3784503125,9.619073125,0.04,0.0,0.0,0.0,0.04,0.0,0.0,0.0,0.04
1614727211.0984335,2932,1614727211,97908735,base_imu_link,-0.013023509722227652,0.09694936320509277,0.3039523750908019,0.9476519207205263,0.0025,0.0,0.0,0.0,0.0025,0.0,0.0,0.0,0.0025,-0.0,-0.04,0.03,0.02,0.0,0.0,0.0,0.02,0.0,0.0,0.0,0.02,-1.766995234375,0.28268859375,9.62903234375,0.04,0.0,0.0,0.0,0.04,0.0,0.0,0.0,0.04
1614727211.1182456,2933,1614727211,117751598,base_imu_link,-0.013214199800883897,0.09615698022747464,0.30394375732105394,0.9477327748172033,0.0025,0.0,0.0,0.0,0.0025,0.0,0.0,0.0,0.0025,0.0,-0.04,0.02,0.02,0.0,0.0,0.0,0.02,0.0,0.0,0.0,0.02,-1.8577773437499998,0.311417109375,9.619073125,0.04,0.0,0.0,0.0,0.04,0.0,0.0,0.0,0.04
1614727211.1382463,2934,1614727211,137822151,base_imu_link,-0.013389177509755046,0.09611764736372061,0.30486176430629414,0.9474394083290655,0.0025,0.0,0.0,0.0,0.0025,0.0,0.0,0.0,0.0025,0.01,-0.03,0.02,0.02,0.0,0.0,0.0,0.02,0.0,0.0,0.0,0.02,-1.881909296875,0.368874140625,9.643205078125,0.04,0.0,0.0,0.0,0.04,0.0,0.0,0.0,0.04
1614727211.1582923,2935,1614727211,157872438,base_imu_link,-0.01319989922346345,0.0961894112799297,0.30541529332731737,0.947256490302336,0.0025,0.0,0.0,0.0,0.0025,0.0,0.0,0.0,0.0025,0.01,-0.04,0.03,0.02,0.0,0.0,0.0,0.02,0.0,0.0,0.0,0.02,-1.8531807812499999,0.30184093749999996,9.691085937499999,0.04,0.0,0.0,0.0,0.04,0.0,0.0,0.0,0.04
1614727211.1784625,2936,1614727211,178041696,base_imu_link,-0.013400580634672019,0.09585704638169285,0.30578301142790426,0.9471687289072174,0.0025,0.0,0.0,0.0,0.0025,0.0,0.0,0.0,0.0025,-0.0,-0.04,0.02,0.02,0.0,0.0,0.0,0.02,0.0,0.0,0.0,0.02,-1.8531807812499999,0.229828125,9.686489374999999,0.04,0.0,0.0,0.0,0.04,0.0,0.0,0.0,0.04
1614727211.1985495,2937,1614727211,198122978,base_imu_link,-0.014163503242057557,0.09535435588305544,0.30686161573490023,0.9468594884029026,0.0025,0.0,0.0,0.0,0.0025,0.0,0.0,0.0,0.0025,-0.01,-0.05,0.02,0.02,0.0,0.0,0.0,0.02,0.0,0.0,0.0,0.02,-1.8340284375,0.311417109375,9.729390624999999,0.04,0.0,0.0,0.0,0.04,0.0,0.0,0.0,0.04
1614727211.2187629,2938,1614727211,218328237,base_imu_link,-0.01430350396011519,0.09495815802338597,0.3077199863112603,0.9466185969142306,0.0025,0.0,0.0,0.0,0.0025,0.0,0.0,0.0,0.0025,-0.01,-0.05,0.03,0.02,0.0,0.0,0.0,0.02,0.0,0.0,0.0,0.02,-1.843604609375,0.39760265625,9.686489374999999,0.04,0.0,0.0,0.0,0.04,0.0,0.0,0.0,0.04
1614727211.238591,2939,1614727211,238176584,base_imu_link,-0.014078289761145966,0.09494883190736736,0.30819463376784284,0.9464684827259345,0.0025,0.0,0.0,0.0,0.0025,0.0,0.0,0.0,0.0025,-0.0,-0.03,0.03,0.02,0.0,0.0,0.0,0.02,0.0,0.0,0.0,0.02,-1.8531807812499999,0.292264765625,9.648184687499999,0.04,0.0,0.0,0.0,0.04,0.0,0.0,0.0,0.04
1614727211.2586613,2940,1614727211,258226871,base_imu_link,-0.014361793249489732,0.09496380965612758,0.3091156981515779,0.9461623005100743,0.0025,0.0,0.0,0.0,0.0025,0.0,0.0,0.0,0.0025,0.0,-0.03,0.02,0.02,0.0,0.0,0.0,0.02,0.0,0.0,0.0,0.02,-1.8531807812499999,0.32558984375,9.66733703125,0.04,0.0,0.0,0.0,0.04,0.0,0.0,0.0,0.04
1614727211.2786248,2941,1614727211,278204917,base_imu_link,-0.014370080350537238,0.09496255599164032,0.30919826521145843,0.946135321473878,0.0025,0.0,0.0,0.0,0.0025,0.0,0.0,0.0,0.0025,0.0,-0.03,0.02,0.02,0.0,0.0,0.0,0.02,0.0,0.0,0.0,0.02,-1.8673535156249998,0.3784503125,9.67193359375,0.04,0.0,0.0,0.0,0.04,0.0,0.0,0.0,0.04
1614727211.2989073,2942,1614727211,298478126,base_imu_link,-0.014141317549217394,0.09512721673664021,0.30908689951787927,0.9461586147789053,0.0025,0.0,0.0,0.0,0.0025,0.0,0.0,0.0,0.0025,0.0,-0.03,0.02,0.02,0.0,0.0,0.0,0.02,0.0,0.0,0.0,0.02,-1.8673535156249998,0.392623046875,9.67193359375,0.04,0.0,0.0,0.0,0.04,0.0,0.0,0.0,0.04
1614727211.3189013,2943,1614727211,318496227,base_imu_link,-0.013913134993951567,0.09530668660016921,0.3097927311602402,0.9459130635973986,0.0025,0.0,0.0,0.0,0.0025,0.0,0.0,0.0,0.0025,0.0,-0.03,0.03,0.02,0.0,0.0,0.0,0.02,0.0,0.0,0.0,0.02,-1.862756953125,0.42633117187499997,9.681509765625,0.04,0.0,0.0,0.0,0.04,0.0,0.0,0.0,0.04
1614727211.338771,2944,1614727211,338371038,base_imu_link,-0.01352615153930423,0.09545359711896653,0.31081569912960494,0.9455682181609958,0.0025,0.0,0.0,0.0,0.0025,0.0,0.0,0.0,0.0025,0.01,-0.03,0.03,0.02,0.0,0.0,0.0,0.02,0.0,0.0,0.0,0.02,-1.8482011718749998,0.340145625,9.66733703125,0.04,0.0,0.0,0.0,0.04,0.0,0.0,0.0,0.04
1614727211.3588371,2945,1614727211,358422279,base_imu_link,-0.013534481385552882,0.09545241637611025,0.31089821433954734,0.94554109077399,0.0025,0.0,0.0,0.0,0.0025,0.0,0.0,0.0,0.0025,0.01,-0.03,0.02,0.02,0.0,0.0,0.0,0.02,0.0,0.0,0.0,0.02,-1.862756953125,0.31601367187499996,9.67193359375,0.04,0.0,0.0,0.0,0.04,0.0,0.0,0.0,0.04
1614727211.3788822,2946,1614727211,378445625,base_imu_link,-0.013763550087468494,0.09557696556037718,0.3118060143051948,0.9452262257186735,0.0025,0.0,0.0,0.0,0.0025,0.0,0.0,0.0,0.0025,0.01,-0.02,0.02,0.02,0.0,0.0,0.0,0.02,0.0,0.0,0.0,0.02,-1.8531807812499999,0.311417109375,9.624052734374999,0.04,0.0,0.0,0.0,0.04,0.0,0.0,0.0,0.04
1614727211.3988636,2947,1614727211,398421525,base_imu_link,-0.014116049870230792,0.09565274869382207,0.31231788769778135,0.9450443512488574,0.0025,0.0,0.0,0.0,0.0025,0.0,0.0,0.0,0.0025,0.0,-0.01,0.01,0.02,0.0,0.0,0.0,0.02,0.0,0.0,0.0,0.02,-1.766995234375,0.2681328125,9.67653015625,0.04,0.0,0.0,0.0,0.04,0.0,0.0,0.0,0.04
1614727211.419304,2948,1614727211,418883085,base_imu_link,-0.014501392587922216,0.09517430419225255,0.3132000743022586,0.9447948321681227,0.0025,0.0,0.0,0.0,0.0025,0.0,0.0,0.0,0.0025,-0.0,-0.01,0.0,0.02,0.0,0.0,0.0,0.02,0.0,0.0,0.0,0.02,-1.6949824218749998,0.330569453125,9.738966796875,0.04,0.0,0.0,0.0,0.04,0.0,0.0,0.0,0.04
1614727211.4393291,2949,1614727211,438884496,base_imu_link,-0.014332639430535855,0.09431955326672964,0.31349523890572434,0.9447852308868728,0.0025,0.0,0.0,0.0,0.0025,0.0,0.0,0.0,0.0025,0.01,-0.03,0.0,0.02,0.0,0.0,0.0,0.02,0.0,0.0,0.0,0.02,-1.652081171875,0.38304687499999995,9.76309875,0.04,0.0,0.0,0.0,0.04,0.0,0.0,0.0,0.04
1614727211.4589522,2950,1614727211,458536148,base_imu_link,-0.013668293425698936,0.09335463681639522,0.3137610544532174,0.9448026726508097,0.0025,0.0,0.0,0.0,0.0025,0.0,0.0,0.0,0.0025,0.02,-0.04,-0.0,0.02,0.0,0.0,0.0,0.02,0.0,0.0,0.0,0.02,-1.675830078125,0.330569453125,9.681509765625,0.04,0.0,0.0,0.0,0.04,0.0,0.0,0.0,0.04
1614727211.4790235,2951,1614727211,478613138,base_imu_link,-0.013390228333451572,0.09254669508666051,0.31461670034751793,0.9446015789083537,0.0025,0.0,0.0,0.0,0.0025,0.0,0.0,0.0,0.0025,0.02,-0.04,-0.0,0.02,0.0,0.0,0.0,0.02,0.0,0.0,0.0,0.02,-1.7237109375,0.35431835937499995,9.59532421875,0.04,0.0,0.0,0.0,0.04,0.0,0.0,0.0,0.04
1614727211.499484,2952,1614727211,499028921,base_imu_link,-0.013032080843603359,0.09229967042587897,0.3146082466401417,0.9446335727964443,0.0025,0.0,0.0,0.0,0.0025,0.0,0.0,0.0,0.0025,0.02,-0.03,0.01,0.02,0.0,0.0,0.0,0.02,0.0,0.0,0.0,0.02,-1.7574190625,0.42135156249999994,9.528291015625,0.04,0.0,0.0,0.0,0.04,0.0,0.0,0.0,0.04
1614727211.5195255,2953,1614727211,519072055,base_imu_link,-0.012563533309049732,0.09256325354909008,0.3153720411630706,0.9443594005334186,0.0025,0.0,0.0,0.0,0.0025,0.0,0.0,0.0,0.0025,0.02,-0.02,0.02,0.02,0.0,0.0,0.0,0.02,0.0,0.0,0.0,0.02,-1.7428632812499998,0.464635859375,9.59532421875,0.04,0.0,0.0,0.0,0.04,0.0,0.0,0.0,0.04
1614727211.539519,2954,1614727211,539100885,base_imu_link,-0.011953719940603819,0.09260526284199495,0.3163866185574664,0.9440237716664337,0.0025,0.0,0.0,0.0,0.0025,0.0,0.0,0.0,0.0025,0.02,-0.03,0.03,0.02,0.0,0.0,0.0,0.02,0.0,0.0,0.0,0.02,-1.6808096875,0.388026484375,9.7247940625,0.04,0.0,0.0,0.0,0.04,0.0,0.0,0.0,0.04
1614727211.559353,2955,1614727211,558908700,base_imu_link,-0.011531641940778187,0.09202374565038395,0.3168892261265705,0.943917300315831,0.0025,0.0,0.0,0.0,0.0025,0.0,0.0,0.0,0.0025,0.02,-0.04,0.03,0.02,0.0,0.0,0.0,0.02,0.0,0.0,0.0,0.02,-1.671233515625,0.32558984375,9.772291874999999,0.04,0.0,0.0,0.0,0.04,0.0,0.0,0.0,0.04
1614727211.5793808,2956,1614727211,578966379,base_imu_link,-0.01137446503196807,0.09116831857673187,0.31734959599873963,0.9438475476222654,0.0025,0.0,0.0,0.0,0.0025,0.0,0.0,0.0,0.0025,0.02,-0.05,0.02,0.02,0.0,0.0,0.0,0.02,0.0,0.0,0.0,0.02,-1.728690546875,0.330569453125,9.691085937499999,0.04,0.0,0.0,0.0,0.04,0.0,0.0,0.0,0.04
1614727211.5994327,2957,1614727211,599012851,base_imu_link,-0.011364992628693567,0.09089479278082727,0.3172872657411072,0.9438949965893517,0.0025,0.0,0.0,0.0,0.0025,0.0,0.0,0.0,0.0025,0.02,-0.04,0.03,0.02,0.0,0.0,0.0,0.02,0.0,0.0,0.0,0.02,-1.7907441406249998,0.3064375,9.59532421875,0.04,0.0,0.0,0.0,0.04,0.0,0.0,0.0,0.04
1614727211.6196587,2958,1614727211,619237422,base_imu_link,-0.011707717967693137,0.09097118100315721,0.3177148559669869,0.9437396059638253,0.0025,0.0,0.0,0.0,0.0025,0.0,0.0,0.0,0.0025,0.01,-0.03,0.03,0.02,0.0,0.0,0.0,0.02,0.0,0.0,0.0,0.02,-1.728690546875,0.349721796875,9.67193359375,0.04,0.0,0.0,0.0,0.04,0.0,0.0,0.0,0.04
1614727211.6396194,2959,1614727211,639203071,base_imu_link,-0.011694981580568902,0.0907152242353597,0.31846800510249584,0.9435105220525074,0.0025,0.0,0.0,0.0,0.0025,0.0,0.0,0.0,0.0025,0.01,-0.04,0.03,0.02,0.0,0.0,0.0,0.02,0.0,0.0,0.0,0.02,-1.671233515625,0.35929796875,9.76309875,0.04,0.0,0.0,0.0,0.04,0.0,0.0,0.0,0.04
1614727211.659686,2960,1614727211,659236192,base_imu_link,-0.011588368819247699,0.09004214591656262,0.3197348451312205,0.9431477882472948,0.0025,0.0,0.0,0.0,0.0025,0.0,0.0,0.0,0.0025,0.01,-0.05,0.03,0.02,0.0,0.0,0.0,0.02,0.0,0.0,0.0,0.02,-1.7428632812499998,0.32558984375,9.700662109375,0.04,0.0,0.0,0.0,0.04,0.0,0.0,0.0,0.04
1614727211.6797588,2961,1614727211,679342746,base_imu_link,-0.01171232002099698,0.08981986623113888,0.3199231252456771,0.9431036035998297,0.0025,0.0,0.0,0.0,0.0025,0.0,0.0,0.0,0.0025,0.01,-0.05,0.03,0.02,0.0,0.0,0.0,0.02,0.0,0.0,0.0,0.02,-1.824452265625,0.32558984375,9.614476562499998,0.04,0.0,0.0,0.0,0.04,0.0,0.0,0.0,0.04
1614727211.6998105,2962,1614727211,699393272,base_imu_link,-0.01197946727544311,0.09028311596324887,0.3200716728523659,0.9430056073922632,0.0025,0.0,0.0,0.0,0.0025,0.0,0.0,0.0,0.0025,0.01,-0.03,0.03,0.02,0.0,0.0,0.0,0.02,0.0,0.0,0.0,0.02,-1.8194726562499999,0.340145625,9.62903234375,0.04,0.0,0.0,0.0,0.04,0.0,0.0,0.0,0.04
1614727211.71984,2963,1614727211,719422578,base_imu_link,-0.012144186778545115,0.09069094462119713,0.32029855827299214,0.9428873235225116,0.0025,0.0,0.0,0.0,0.0025,0.0,0.0,0.0,0.0025,0.01,-0.03,0.03,0.02,0.0,0.0,0.0,0.02,0.0,0.0,0.0,0.02,-1.7428632812499998,0.335166015625,9.796423828124999,0.04,0.0,0.0,0.0,0.04,0.0,0.0,0.0,0.04
1614727211.739924,2964,1614727211,739485502,base_imu_link,-0.012102368188735557,0.09042170245495292,0.31990699501500547,0.9430466387988673,0.0025,0.0,0.0,0.0,0.0025,0.0,0.0,0.0,0.0025,0.01,-0.04,0.02,0.02,0.0,0.0,0.0,0.02,0.0,0.0,0.0,0.02,-1.7524394531249998,0.2681328125,9.79144421875,0.04,0.0,0.0,0.0,0.04,0.0,0.0,0.0,0.04
1614727211.759923,2965,1614727211,759513854,base_imu_link,-0.012445030268405825,0.09003330933935637,0.32012284532557267,0.9430060913544948,0.0025,0.0,0.0,0.0,0.0025,0.0,0.0,0.0,0.0025,0.01,-0.04,0.01,0.02,0.0,0.0,0.0,0.02,0.0,0.0,0.0,0.02,-1.786147578125,0.35431835937499995,9.66733703125,0.04,0.0,0.0,0.0,0.04,0.0,0.0,0.0,0.04
1614727211.7802887,2966,1614727211,779884576,base_imu_link,-0.01239550092378952,0.09022890207536974,0.31986019592876996,0.9430771717349173,0.0025,0.0,0.0,0.0,0.0025,0.0,0.0,0.0,0.0025,0.01,-0.03,0.01,0.02,0.0,0.0,0.0,0.02,0.0,0.0,0.0,0.02,-1.7574190625,0.43590734375,9.614476562499998,0.04,0.0,0.0,0.0,0.04,0.0,0.0,0.0,0.04
1614727211.8002625,2967,1614727211,799887180,base_imu_link,-0.012040352264213905,0.09053287622460873,0.3198128125898465,0.9430687107221959,0.0025,0.0,0.0,0.0,0.0025,0.0,0.0,0.0,0.0025,0.0,-0.03,0.01,0.02,0.0,0.0,0.0,0.02,0.0,0.0,0.0,0.02,-1.719114375,0.39760265625,9.6573778125,0.04,0.0,0.0,0.0,0.04,0.0,0.0,0.0,0.04
1614727211.8202024,2968,1614727211,819732666,base_imu_link,-0.011787840839255069,0.09042839694506732,0.3194758004599185,0.9431961433099629,0.0025,0.0,0.0,0.0,0.0025,0.0,0.0,0.0,0.0025,0.0,-0.03,0.01,0.02,0.0,0.0,0.0,0.02,0.0,0.0,0.0,0.02,-1.719114375,0.349721796875,9.67193359375,0.04,0.0,0.0,0.0,0.04,0.0,0.0,0.0,0.04
1614727211.8404424,2969,1614727211,839958190,base_imu_link,-0.011897174466364308,0.090311047142109,0.32006379294547066,0.9430066492072956,0.0025,0.0,0.0,0.0,0.0025,0.0,0.0,0.0,0.0025,0.01,-0.03,0.01,0.02,0.0,0.0,0.0,0.02,0.0,0.0,0.0,0.02,-1.7478428906249999,0.39760265625,9.6573778125,0.04,0.0,0.0,0.0,0.04,0.0,0.0,0.0,0.04
1614727211.8602526,2970,1614727211,859812259,base_imu_link,-0.011781082562883974,0.09053233780246558,0.3199577078871163,0.9430228878819906,0.0025,0.0,0.0,0.0,0.0025,0.0,0.0,0.0,0.0025,0.01,-0.01,0.01,0.02,0.0,0.0,0.0,0.02,0.0,0.0,0.0,0.02,-1.7428632812499998,0.34474218749999996,9.681509765625,0.04,0.0,0.0,0.0,0.04,0.0,0.0,0.0,0.04
1614727211.8803186,2971,1614727211,879886865,base_imu_link,-0.012049506008413518,0.09063460207739013,0.32045921259903887,0.9428393666853492,0.0025,0.0,0.0,0.0,0.0025,0.0,0.0,0.0,0.0025,0.0,-0.01,0.0,0.02,0.0,0.0,0.0,0.02,0.0,0.0,0.0,0.02,-1.719114375,0.296861328125,9.758119140624999,0.04,0.0,0.0,0.0,0.04,0.0,0.0,0.0,0.04
1614727211.9001737,2972,1614727211,899700641,base_imu_link,-0.012456337047610126,0.09040931941118721,0.32074952442284593,0.9427569873586089,0.0025,0.0,0.0,0.0,0.0025,0.0,0.0,0.0,0.0025,0.0,-0.01,-0.01,0.02,0.0,0.0,0.0,0.02,0.0,0.0,0.0,0.02,-1.6566777343749999,0.3064375,9.777271484375,0.04,0.0,0.0,0.0,0.04,0.0,0.0,0.0,0.04
1614727211.9202993,2973,1614727211,919887304,base_imu_link,-0.012593292058045269,0.08991002849571014,0.3211219796248234,0.9426761214610646,0.0025,0.0,0.0,0.0,0.0025,0.0,0.0,0.0,0.0025,0.01,-0.02,-0.01,0.02,0.0,0.0,0.0,0.02,0.0,0.0,0.0,0.02,-1.6566777343749999,0.4550596875,9.71483484375,0.04,0.0,0.0,0.0,0.04,0.0,0.0,0.0,0.04
1614727211.940543,2974,1614727211,940093755,base_imu_link,-0.012104052482580459,0.0897336830729208,0.32232450274830743,0.9422888479461718,0.0025,0.0,0.0,0.0,0.0025,0.0,0.0,0.0,0.0025,0.01,-0.01,0.01,0.02,0.0,0.0,0.0,0.02,0.0,0.0,0.0,0.02,-1.69996203125,0.5412452343749999,9.62903234375,0.04,0.0,0.0,0.0,0.04,0.0,0.0,0.0,0.04
1614727211.960935,2975,1614727211,960358381,base_imu_link,-0.01114567958522604,0.09015330717838105,0.32222628712271456,0.9422942082590201,0.0025,0.0,0.0,0.0,0.0025,0.0,0.0,0.0,0.0025,0.01,-0.01,0.02,0.02,0.0,0.0,0.0,0.02,0.0,0.0,0.0,0.02,-1.6949824218749998,0.46923242187499997,9.624052734374999,0.04,0.0,0.0,0.0,0.04,0.0,0.0,0.0,0.04
1614727211.9808207,2976,1614727211,980371236,base_imu_link,-0.010671142328689705,0.09023430327751317,0.3226764982615032,0.9421378745720378,0.0025,0.0,0.0,0.0,0.0025,0.0,0.0,0.0,0.0025,0.01,-0.01,0.03,0.02,0.0,0.0,0.0,0.02,0.0,0.0,0.0,0.02,-1.66625390625,0.392623046875,9.6573778125,0.04,0.0,0.0,0.0,0.04,0.0,0.0,0.0,0.04
1614727212.0006022,2977,1614727212,198602,base_imu_link,-0.010626383289209493,0.09008714407217334,0.3236633052237214,0.9418139154327496,0.0025,0.0,0.0,0.0,0.0025,0.0,0.0,0.0,0.0025,0.01,-0.02,0.02,0.02,0.0,0.0,0.0,0.02,0.0,0.0,0.0,0.02,-1.6566777343749999,0.330569453125,9.700662109375,0.04,0.0,0.0,0.0,0.04,0.0,0.0,0.0,0.04
1614727212.0207589,2978,1614727212,20242929,base_imu_link,-0.010851579657352447,0.08955896447222667,0.32412610722084684,0.9417025548013886,0.0025,0.0,0.0,0.0,0.0025,0.0,0.0,0.0,0.0025,0.0,-0.02,0.01,0.02,0.0,0.0,0.0,0.02,0.0,0.0,0.0,0.02,-1.6903858593749999,0.296861328125,9.66733703125,0.04,0.0,0.0,0.0,0.04,0.0,0.0,0.0,0.04
1614727212.0406957,2979,1614727212,40274381,base_imu_link,-0.01134465245198334,0.08938924017055197,0.32417295575234045,0.9416967438412783,0.0025,0.0,0.0,0.0,0.0025,0.0,0.0,0.0,0.0025,0.0,-0.02,0.01,0.02,0.0,0.0,0.0,0.02,0.0,0.0,0.0,0.02,-1.6808096875,0.3064375,9.652781249999999,0.04,0.0,0.0,0.0,0.04,0.0,0.0,0.0,0.04
1614727212.060944,2980,1614727212,60529708,base_imu_link,-0.011758111154183137,0.08916159854247836,0.3245446299180133,0.9415852268163597,0.0025,0.0,0.0,0.0,0.0025,0.0,0.0,0.0,0.0025,-0.0,-0.02,0.01,0.02,0.0,0.0,0.0,0.02,0.0,0.0,0.0,0.02,-1.5992207031249999,0.330569453125,9.71023828125,0.04,0.0,0.0,0.0,0.04,0.0,0.0,0.0,0.04
1614727212.0807457,2981,1614727212,80326795,base_imu_link,-0.011768708192945444,0.08852424001993489,0.32508107174280665,0.9414601708149478,0.0025,0.0,0.0,0.0,0.0025,0.0,0.0,0.0,0.0025,0.01,-0.02,0.0,0.02,0.0,0.0,0.0,0.02,0.0,0.0,0.0,0.02,-1.565895625,0.349721796875,9.691085937499999,0.04,0.0,0.0,0.0,0.04,0.0,0.0,0.0,0.04
1614727212.1005805,2982,1614727212,100189924,base_imu_link,-0.011568309788002863,0.08794974833886683,0.32510886829278746,0.9415068983991365,0.0025,0.0,0.0,0.0,0.0025,0.0,0.0,0.0,0.0025,0.01,-0.02,0.0,0.02,0.0,0.0,0.0,0.02,0.0,0.0,0.0,0.02,-1.5992207031249999,0.32558984375,9.648184687499999,0.04,0.0,0.0,0.0,0.04,0.0,0.0,0.0,0.04
1614727212.120749,2983,1614727212,120241165,base_imu_link,-0.011717448978989468,0.08744813229773794,0.32564449835569326,0.9413666587667799,0.0025,0.0,0.0,0.0,0.0025,0.0,0.0,0.0,0.0025,0.0,-0.02,0.0,0.02,0.0,0.0,0.0,0.02,0.0,0.0,0.0,0.02,-1.613776484375,0.3064375,9.6573778125,0.04,0.0,0.0,0.0,0.04,0.0,0.0,0.0,0.04
1614727212.1410425,2984,1614727212,140641450,base_imu_link,-0.012042193810198946,0.08705984076422116,0.3256943008302416,0.9413813213045212,0.0025,0.0,0.0,0.0,0.0025,0.0,0.0,0.0,0.0025,-0.01,-0.02,0.01,0.02,0.0,0.0,0.0,0.02,0.0,0.0,0.0,0.02,-1.5896445312499998,0.35929796875,9.733987187499999,0.04,0.0,0.0,0.0,0.04,0.0,0.0,0.0,0.04
1614727212.1611688,2985,1614727212,160714149,base_imu_link,-0.011923672565162136,0.08645694004125522,0.32572900645078573,0.941426384752332,0.0025,0.0,0.0,0.0,0.0025,0.0,0.0,0.0,0.0025,-0.01,-0.04,0.01,0.02,0.0,0.0,0.0,0.02,0.0,0.0,0.0,0.02,-1.594624140625,0.34474218749999996,9.719814453124998,0.04,0.0,0.0,0.0,0.04,0.0,0.0,0.0,0.04
1614727212.1812553,2986,1614727212,180906534,base_imu_link,-0.011880072044049974,0.08584366704657433,0.32658495217590533,0.9411864840341082,0.0025,0.0,0.0,0.0,0.0025,0.0,0.0,0.0,0.0025,-0.0,-0.04,0.01,0.02,0.0,0.0,0.0,0.02,0.0,0.0,0.0,0.02,-1.66165734375,0.40219921875,9.62903234375,0.04,0.0,0.0,0.0,0.04,0.0,0.0,0.0,0.04
1614727212.2011607,2987,1614727212,200729846,base_imu_link,-0.011663663821694627,0.08592509769253388,0.3268909843976357,0.9410755128321678,0.0025,0.0,0.0,0.0,0.0025,0.0,0.0,0.0,0.0025,0.0,-0.03,0.01,0.02,0.0,0.0,0.0,0.02,0.0,0.0,0.0,0.02,-1.709538203125,0.45965625,9.59072765625,0.04,0.0,0.0,0.0,0.04,0.0,0.0,0.0,0.04
1614727212.221018,2988,1614727212,220576047,base_imu_link,-0.011203885744203744,0.08645291104794862,0.32682273836205933,0.9410564620707363,0.0025,0.0,0.0,0.0,0.0025,0.0,0.0,0.0,0.0025,0.01,-0.03,0.02,0.02,0.0,0.0,0.0,0.02,0.0,0.0,0.0,0.02,-1.671233515625,0.36389453125,9.67193359375,0.04,0.0,0.0,0.0,0.04,0.0,0.0,0.0,0.04
1614727212.241133,2989,1614727212,240650415,base_imu_link,-0.011196341261823482,0.08645388844223538,0.3267406144491633,0.9410849791516968,0.0025,0.0,0.0,0.0,0.0025,0.0,0.0,0.0,0.0025,0.01,-0.03,0.02,0.02,0.0,0.0,0.0,0.02,0.0,0.0,0.0,0.02,-1.6375253906249998,0.24898046875,9.738966796875,0.04,0.0,0.0,0.0,0.04,0.0,0.0,0.0,0.04
1614727212.2611225,2990,1614727212,260700225,base_imu_link,-0.011580276948378532,0.08603971029812484,0.32655109204797694,0.9411840679271443,0.0025,0.0,0.0,0.0,0.0025,0.0,0.0,0.0,0.0025,0.01,-0.04,0.0,0.02,0.0,0.0,0.0,0.02,0.0,0.0,0.0,0.02,-1.66625390625,0.296861328125,9.700662109375,0.04,0.0,0.0,0.0,0.04,0.0,0.0,0.0,0.04
1614727212.2811499,2991,1614727212,280711412,base_imu_link,-0.011752047742352771,0.08598168983839279,0.32664823621962347,0.9411535306000849,0.0025,0.0,0.0,0.0,0.0025,0.0,0.0,0.0,0.0025,0.02,-0.03,0.0,0.02,0.0,0.0,0.0,0.02,0.0,0.0,0.0,0.02,-1.6854062499999998,0.37347070312499997,9.63362890625,0.04,0.0,0.0,0.0,0.04,0.0,0.0,0.0,0.04
1614727212.3012002,2992,1614727212,300730466,base_imu_link,-0.011717853453813688,0.08636483429123679,0.32678195001143046,0.9410724544130538,0.0025,0.0,0.0,0.0,0.0025,0.0,0.0,0.0,0.0025,0.01,-0.02,0.01,0.02,0.0,0.0,0.0,0.02,0.0,0.0,0.0,0.02,-1.6471015624999998,0.296861328125,9.681509765625,0.04,0.0,0.0,0.0,0.04,0.0,0.0,0.0,0.04
1614727212.3210077,2993,1614727212,320582866,base_imu_link,-0.011973073650708838,0.08619202429168986,0.32721900509159485,0.9409332086618701,0.0025,0.0,0.0,0.0,0.0025,0.0,0.0,0.0,0.0025,0.01,-0.02,-0.0,0.02,0.0,0.0,0.0,0.02,0.0,0.0,0.0,0.02,-1.565895625,0.24898046875,9.78684765625,0.04,0.0,0.0,0.0,0.04,0.0,0.0,0.0,0.04
