Time,header.seq,header.stamp.secs,header.stamp.nsecs,header.frame_id,orientation.x,orientation.y,orientation.z,orientation.w,orientation_covariance_0,orientation_covariance_1,orientation_covariance_2,orientation_covariance_3,orientation_covariance_4,orientation_covariance_5,orientation_covariance_6,orientation_covariance_7,orientation_covariance_8,angular_velocity.x,angular_velocity.y,angular_velocity.z,angular_velocity_covariance_0,angular_velocity_covariance_1,angular_velocity_covariance_2,angular_velocity_covariance_3,angular_velocity_covariance_4,angular_velocity_covariance_5,angular_velocity_covariance_6,angular_velocity_covariance_7,angular_velocity_covariance_8,linear_acceleration.x,linear_acceleration.y,linear_acceleration.z,linear_acceleration_covariance_0,linear_acceleration_covariance_1,linear_acceleration_covariance_2,linear_acceleration_covariance_3,linear_acceleration_covariance_4,linear_acceleration_covariance_5,linear_acceleration_covariance_6,linear_acceleration_covariance_7,linear_acceleration_covariance_8
1614383507.624243,41,1614383507,623466014,base_imu_link,0.0680444020683252,0.07181546372339782,-0.6621275317150531,0.7428321683006794,0.0025,0.0,0.0,0.0,0.0025,0.0,0.0,0.0,0.0025,0.01,-0.05,-0.01,0.02,0.0,0.0,0.0,0.02,0.0,0.0,0.0,0.02,-1.99184375,0.067033203125,9.63362890625,0.04,0.0,0.0,0.0,0.04,0.0,0.0,0.0,0.04
1614383507.6428874,42,1614383507,641758918,base_imu_link,0.06812800992769816,0.07173984850993402,-0.6623282450337354,0.7426528558011444,0.0025,0.0,0.0,0.0,0.0025,0.0,0.0,0.0,0.0025,0.01,-0.05,-0.01,0.02,0.0,0.0,0.0,0.02,0.0,0.0,0.0,0.02,-1.99184375,0.047880859374999994,9.638225468749999,0.04,0.0,0.0,0.0,0.04,0.0,0.0,0.0,0.04
1614383507.6626847,43,1614383507,661747932,base_imu_link,0.06808825894035092,0.07177388436690804,-0.6625811784977228,0.7424275590371939,0.0025,0.0,0.0,0.0,0.0025,0.0,0.0,0.0,0.0025,0.01,-0.05,-0.01,0.02,0.0,0.0,0.0,0.02,0.0,0.0,0.0,0.02,-1.9872471875,0.047880859374999994,9.62903234375,0.04,0.0,0.0,0.0,0.04,0.0,0.0,0.0,0.04
1614383507.6832457,44,1614383507,682234048,base_imu_link,0.06807426878164179,0.07166748914916393,-0.6630401254896187,0.7420292830607226,0.0025,0.0,0.0,0.0,0.0025,0.0,0.0,0.0,0.0025,0.01,-0.05,-0.01,0.02,0.0,0.0,0.0,0.02,0.0,0.0,0.0,0.02,-1.9726914062499998,0.05286046874999999,9.62903234375,0.04,0.0,0.0,0.0,0.04,0.0,0.0,0.0,0.04
1614383507.7026484,45,1614383507,701802968,base_imu_link,0.06803518985185576,0.07158489040733651,-0.6632399097125636,0.7418622773612781,0.0025,0.0,0.0,0.0,0.0025,0.0,0.0,0.0,0.0025,0.01,-0.05,-0.01,0.02,0.0,0.0,0.0,0.02,0.0,0.0,0.0,0.02,-1.99184375,0.05745703125,9.619073125,0.04,0.0,0.0,0.0,0.04,0.0,0.0,0.0,0.04
1614383507.722771,46,1614383507,722055912,base_imu_link,0.06813113235215788,0.07149729052647366,-0.6635697868922498,0.7415668710073017,0.0025,0.0,0.0,0.0,0.0025,0.0,0.0,0.0,0.0025,0.01,-0.05,-0.01,0.02,0.0,0.0,0.0,0.02,0.0,0.0,0.0,0.02,-1.9872471875,0.04290125,9.62903234375,0.04,0.0,0.0,0.0,0.04,0.0,0.0,0.0,0.04
1614383507.7428195,47,1614383507,741934061,base_imu_link,0.06809139150376683,0.07153143362109547,-0.6638223623629452,0.7413411411988884,0.0025,0.0,0.0,0.0,0.0025,0.0,0.0,0.0,0.0025,0.01,-0.05,-0.01,0.02,0.0,0.0,0.0,0.02,0.0,0.0,0.0,0.02,-1.996823359375,0.05745703125,9.63362890625,0.04,0.0,0.0,0.0,0.04,0.0,0.0,0.0,0.04
1614383507.762713,48,1614383507,761832952,base_imu_link,0.06818726517369939,0.07144375841419483,-0.6641520074293047,0.7410454758511182,0.0025,0.0,0.0,0.0,0.0025,0.0,0.0,0.0,0.0025,0.01,-0.05,-0.01,0.02,0.0,0.0,0.0,0.02,0.0,0.0,0.0,0.02,-1.996823359375,0.067033203125,9.638225468749999,0.04,0.0,0.0,0.0,0.04,0.0,0.0,0.0,0.04
1614383507.7828584,49,1614383507,782007932,base_imu_link,0.06825816265763163,0.07137984356931704,-0.6642229049132369,0.7409815610062406,0.0025,0.0,0.0,0.0,0.0025,0.0,0.0,0.0,0.0025,0.01,-0.05,-0.01,0.02,0.0,0.0,0.0,0.02,0.0,0.0,0.0,0.02,-1.9872471875,0.04290125,9.63362890625,0.04,0.0,0.0,0.0,0.04,0.0,0.0,0.0,0.04
1614383507.802811,50,1614383507,802031040,base_imu_link,0.0682433559339098,0.07139018223181624,-0.6647338182840326,0.7405236235808529,0.0025,0.0,0.0,0.0,0.0025,0.0,0.0,0.0,0.0025,0.01,-0.05,-0.01,0.02,0.0,0.0,0.0,0.02,0.0,0.0,0.0,0.02,-1.996823359375,0.06243664062499999,9.63362890625,0.04,0.0,0.0,0.0,0.04,0.0,0.0,0.0,0.04
1614383507.8235886,51,1614383507,822206974,base_imu_link,0.06824570348516518,0.07139175577887676,-0.6640935691178389,0.7410974784864365,0.0025,0.0,0.0,0.0,0.0025,0.0,0.0,0.0,0.0025,0.01,-0.05,-0.01,0.02,0.0,0.0,0.0,0.02,0.0,0.0,0.0,0.02,-2.0014199218749997,0.05745703125,9.62903234375,0.04,0.0,0.0,0.0,0.04,0.0,0.0,0.0,0.04
1614383507.8425913,52,1614383507,841964006,base_imu_link,0.06832231979947423,0.07143858127978668,-0.6642820231653281,0.7409169882121264,0.0025,0.0,0.0,0.0,0.0025,0.0,0.0,0.0,0.0025,0.01,-0.05,-0.01,0.02,0.0,0.0,0.0,0.02,0.0,0.0,0.0,0.02,-2.0109960937499998,0.05286046874999999,9.638225468749999,0.04,0.0,0.0,0.0,0.04,0.0,0.0,0.0,0.04
1614383507.8632233,53,1614383507,862287044,base_imu_link,0.06841767726678522,0.07146746175260148,-0.6646643247391045,0.7405624610842549,0.0025,0.0,0.0,0.0,0.0025,0.0,0.0,0.0,0.0025,0.01,-0.05,-0.01,0.02,0.0,0.0,0.0,0.02,0.0,0.0,0.0,0.02,-2.0014199218749997,0.047880859374999994,9.62903234375,0.04,0.0,0.0,0.0,0.04,0.0,0.0,0.0,0.04
1614383507.8829458,54,1614383507,882138013,base_imu_link,0.06843638505966905,0.07144954759763172,-0.6648581807581415,0.7403884269942588,0.0025,0.0,0.0,0.0,0.0025,0.0,0.0,0.0,0.0025,0.01,-0.05,-0.01,0.02,0.0,0.0,0.0,0.02,0.0,0.0,0.0,0.02,-2.0014199218749997,0.05745703125,9.624052734374999,0.04,0.0,0.0,0.0,0.04,0.0,0.0,0.0,0.04
1614383507.9034696,55,1614383507,902365922,base_imu_link,0.06850684368470959,0.07150224001306095,-0.6649818342639937,0.7402657645335003,0.0025,0.0,0.0,0.0,0.0025,0.0,0.0,0.0,0.0025,0.01,-0.05,-0.01,0.02,0.0,0.0,0.0,0.02,0.0,0.0,0.0,0.02,-1.996823359375,0.05286046874999999,9.638225468749999,0.04,0.0,0.0,0.0,0.04,0.0,0.0,0.0,0.04
1614383507.9236953,56,1614383507,922924995,base_imu_link,0.06853179850074277,0.0714783222577321,-0.6652401952443546,0.7400335969891682,0.0025,0.0,0.0,0.0,0.0025,0.0,0.0,0.0,0.0025,0.01,-0.05,-0.01,0.02,0.0,0.0,0.0,0.02,0.0,0.0,0.0,0.02,-1.9872471875,0.05286046874999999,9.62903234375,0.04,0.0,0.0,0.0,0.04,0.0,0.0,0.0,0.04
1614383507.942935,57,1614383507,942220926,base_imu_link,0.06848624957227134,0.07140175257979385,-0.6653749073260422,0.7399240880312785,0.0025,0.0,0.0,0.0,0.0025,0.0,0.0,0.0,0.0025,0.01,-0.05,-0.01,0.02,0.0,0.0,0.0,0.02,0.0,0.0,0.0,0.02,-1.9822675781249999,0.05745703125,9.624052734374999,0.04,0.0,0.0,0.0,0.04,0.0,0.0,0.0,0.04
1614383507.963215,58,1614383507,962224006,base_imu_link,0.06843445092512702,0.0713311727411424,-0.6654450328453372,0.7398726228097766,0.0025,0.0,0.0,0.0,0.0025,0.0,0.0,0.0,0.0025,0.01,-0.05,-0.01,0.02,0.0,0.0,0.0,0.02,0.0,0.0,0.0,0.02,-1.99184375,0.05745703125,9.624052734374999,0.04,0.0,0.0,0.0,0.04,0.0,0.0,0.0,0.04
1614383507.9830937,59,1614383507,982222080,base_imu_link,0.06844067548365826,0.07132520043708883,-0.6655095963779953,0.7398145489585533,0.0025,0.0,0.0,0.0,0.0025,0.0,0.0,0.0,0.0025,0.01,-0.05,-0.01,0.02,0.0,0.0,0.0,0.02,0.0,0.0,0.0,0.02,-1.9872471875,0.033708125,9.624052734374999,0.04,0.0,0.0,0.0,0.04,0.0,0.0,0.0,0.04
1614383508.003629,60,1614383508,2473115,base_imu_link,0.06841970702667462,0.07134149492646515,-0.6659551759868807,0.7394138478337582,0.0025,0.0,0.0,0.0,0.0025,0.0,0.0,0.0,0.0025,0.01,-0.05,-0.01,0.02,0.0,0.0,0.0,0.02,0.0,0.0,0.0,0.02,-2.0014199218749997,0.04290125,9.624052734374999,0.04,0.0,0.0,0.0,0.04,0.0,0.0,0.0,0.04
1614383508.023755,61,1614383508,22541046,base_imu_link,0.0685213887530925,0.07136421291014419,-0.6664011621582736,0.7390003108748775,0.0025,0.0,0.0,0.0,0.0025,0.0,0.0,0.0,0.0025,0.01,-0.05,-0.01,0.02,0.0,0.0,0.0,0.02,0.0,0.0,0.0,0.02,-2.00639953125,0.05745703125,9.63362890625,0.04,0.0,0.0,0.0,0.04,0.0,0.0,0.0,0.04
1614383508.0435252,62,1614383508,42314052,base_imu_link,0.06854629538769244,0.07134029008603787,-0.6666590813255155,0.7387676479687527,0.0025,0.0,0.0,0.0,0.0025,0.0,0.0,0.0,0.0025,0.01,-0.05,-0.01,0.02,0.0,0.0,0.0,0.02,0.0,0.0,0.0,0.02,-2.0014199218749997,0.05286046874999999,9.62903234375,0.04,0.0,0.0,0.0,0.04,0.0,0.0,0.0,0.04
1614383508.0635612,63,1614383508,62688112,base_imu_link,0.06863558152965264,0.07137485463881287,-0.6669757840330159,0.7384701013493495,0.0025,0.0,0.0,0.0,0.0025,0.0,0.0,0.0,0.0025,0.01,-0.05,-0.01,0.02,0.0,0.0,0.0,0.02,0.0,0.0,0.0,0.02,-1.996823359375,0.0383046875,9.624052734374999,0.04,0.0,0.0,0.0,0.04,0.0,0.0,0.0,0.04
1614383508.0834434,64,1614383508,82638978,base_imu_link,0.06858983637591035,0.07141510465466563,-0.6671628625911653,0.7383014505960628,0.0025,0.0,0.0,0.0,0.0025,0.0,0.0,0.0,0.0025,0.01,-0.05,-0.01,0.02,0.0,0.0,0.0,0.02,0.0,0.0,0.0,0.02,-1.996823359375,0.05286046874999999,9.619073125,0.04,0.0,0.0,0.0,0.04,0.0,0.0,0.0,0.04
1614383508.103429,65,1614383508,102571010,base_imu_link,0.06860229961828292,0.07140313238223052,-0.6672917103408912,0.7381849974656874,0.0025,0.0,0.0,0.0,0.0025,0.0,0.0,0.0,0.0025,0.01,-0.05,-0.01,0.02,0.0,0.0,0.0,0.02,0.0,0.0,0.0,0.02,-1.99184375,0.033708125,9.624052734374999,0.04,0.0,0.0,0.0,0.04,0.0,0.0,0.0,0.04
1614383508.1240182,66,1614383508,122772932,base_imu_link,0.06857528824978815,0.07142546815288255,-0.6676719011075338,0.7378414903026609,0.0025,0.0,0.0,0.0,0.0025,0.0,0.0,0.0,0.0025,0.01,-0.05,-0.01,0.02,0.0,0.0,0.0,0.02,0.0,0.0,0.0,0.02,-1.9872471875,0.028728515625,9.63362890625,0.04,0.0,0.0,0.0,0.04,0.0,0.0,0.0,0.04
1614383508.1438334,67,1614383508,142575979,base_imu_link,0.06845890323549084,0.07141333637384037,-0.6677356580955665,0.7377957744955111,0.0025,0.0,0.0,0.0,0.0025,0.0,0.0,0.0,0.0025,0.01,-0.05,-0.01,0.02,0.0,0.0,0.0,0.02,0.0,0.0,0.0,0.02,-1.99184375,0.05286046874999999,9.63362890625,0.04,0.0,0.0,0.0,0.04,0.0,0.0,0.0,0.04
1614383508.1637151,68,1614383508,162873983,base_imu_link,0.06848382702122091,0.07138943535830118,-0.6679931567189991,0.7375626458358213,0.0025,0.0,0.0,0.0,0.0025,0.0,0.0,0.0,0.0025,0.01,-0.05,-0.01,0.02,0.0,0.0,0.0,0.02,0.0,0.0,0.0,0.02,-1.996823359375,0.05745703125,9.638225468749999,0.04,0.0,0.0,0.0,0.04,0.0,0.0,0.0,0.04
1614383508.183906,69,1614383508,182817935,base_imu_link,0.06857308633235247,0.07130720950879128,-0.6682567992219489,0.7373234459832138,0.0025,0.0,0.0,0.0,0.0025,0.0,0.0,0.0,0.0025,0.01,-0.05,-0.01,0.02,0.0,0.0,0.0,0.02,0.0,0.0,0.0,0.02,-1.99184375,0.033708125,9.638225468749999,0.04,0.0,0.0,0.0,0.04,0.0,0.0,0.0,0.04
1614383508.2038429,70,1614383508,203077077,base_imu_link,0.06851497001850906,0.07135954685683181,-0.6683149155357921,0.7372711086351731,0.0025,0.0,0.0,0.0,0.0025,0.0,0.0,0.0,0.0025,0.01,-0.05,-0.01,0.02,0.0,0.0,0.0,0.02,0.0,0.0,0.0,0.02,-1.9872471875,0.047880859374999994,9.63362890625,0.04,0.0,0.0,0.0,0.04,0.0,0.0,0.0,0.04
1614383508.2242978,71,1614383508,223089933,base_imu_link,0.06846290652988411,0.07128919992978715,-0.668384858455963,0.7372193441504731,0.0025,0.0,0.0,0.0,0.0025,0.0,0.0,0.0,0.0025,0.01,-0.05,-0.01,0.02,0.0,0.0,0.0,0.02,0.0,0.0,0.0,0.02,-1.996823359375,0.05745703125,9.63362890625,0.04,0.0,0.0,0.0,0.04,0.0,0.0,0.0,0.04
1614383508.2440324,72,1614383508,243006944,base_imu_link,0.06852102446628064,0.07123685193482049,-0.6683267405195663,0.7372716921454399,0.0025,0.0,0.0,0.0,0.0025,0.0,0.0,0.0,0.0025,0.01,-0.05,-0.01,0.02,0.0,0.0,0.0,0.02,0.0,0.0,0.0,0.02,-1.99184375,0.0383046875,9.63362890625,0.04,0.0,0.0,0.0,0.04,0.0,0.0,0.0,0.04
1614383508.264101,73,1614383508,263015985,base_imu_link,0.06846290652988411,0.07128919992978715,-0.668384858455963,0.7372193441504731,0.0025,0.0,0.0,0.0,0.0025,0.0,0.0,0.0,0.0025,0.01,-0.05,-0.01,0.02,0.0,0.0,0.0,0.02,0.0,0.0,0.0,0.02,-2.0014199218749997,0.0383046875,9.63362890625,0.04,0.0,0.0,0.0,0.04,0.0,0.0,0.0,0.04
1614383508.2839637,74,1614383508,283050060,base_imu_link,0.0685336495560054,0.07134160723437767,-0.668507909755679,0.7370961189355449,0.0025,0.0,0.0,0.0,0.0025,0.0,0.0,0.0,0.0025,0.01,-0.05,-0.01,0.02,0.0,0.0,0.0,0.02,0.0,0.0,0.0,0.02,-1.996823359375,0.05286046874999999,9.643205078125,0.04,0.0,0.0,0.0,0.04,0.0,0.0,0.0,0.04
1614383508.3038275,75,1614383508,303039073,base_imu_link,0.06855854829898912,0.07131768013182108,-0.6687651641062055,0.7368627207518036,0.0025,0.0,0.0,0.0,0.0025,0.0,0.0,0.0,0.0025,0.01,-0.05,-0.01,0.02,0.0,0.0,0.0,0.02,0.0,0.0,0.0,0.02,-1.996823359375,0.047880859374999994,9.643205078125,0.04,0.0,0.0,0.0,0.04,0.0,0.0,0.0,0.04
1614383508.3237326,76,1614383508,322961091,base_imu_link,0.0685772168743092,0.07129972910203466,-0.6689580513949659,0.7366876131913719,0.0025,0.0,0.0,0.0,0.0025,0.0,0.0,0.0,0.0025,0.01,-0.05,-0.01,0.02,0.0,0.0,0.0,0.02,0.0,0.0,0.0,0.02,-1.996823359375,0.033708125,9.638225468749999,0.04,0.0,0.0,0.0,0.04,0.0,0.0,0.0,0.04
1614383508.3436368,77,1614383508,342845916,base_imu_link,0.0685129284912239,0.07135810643324417,-0.6689518267726274,0.7366935948773975,0.0025,0.0,0.0,0.0,0.0025,0.0,0.0,0.0,0.0025,0.01,-0.05,-0.01,0.02,0.0,0.0,0.0,0.02,0.0,0.0,0.0,0.02,-1.996823359375,0.047880859374999994,9.624052734374999,0.04,0.0,0.0,0.0,0.04,0.0,0.0,0.0,0.04
1614383508.364124,78,1614383508,363095045,base_imu_link,0.06857099453805135,0.07130571332166938,-0.6688937607257998,0.7367459879889722,0.0025,0.0,0.0,0.0,0.0025,0.0,0.0,0.0,0.0025,0.01,-0.05,-0.01,0.02,0.0,0.0,0.0,0.02,0.0,0.0,0.0,0.02,-2.00639953125,0.047880859374999994,9.638225468749999,0.04,0.0,0.0,0.0,0.04,0.0,0.0,0.0,0.04
1614383508.384153,79,1614383508,383387088,base_imu_link,0.06861064247729443,0.07138800433518751,-0.6686952437792095,0.736914515749931,0.0025,0.0,0.0,0.0,0.0025,0.0,0.0,0.0,0.0025,0.01,-0.05,-0.01,0.02,0.0,0.0,0.0,0.02,0.0,0.0,0.0,0.02,-2.0014199218749997,0.04290125,9.638225468749999,0.04,0.0,0.0,0.0,0.04,0.0,0.0,0.0,0.04
1614383508.404004,80,1614383508,403260946,base_imu_link,0.0686231009894521,0.07137602843181544,-0.6688238494398014,0.73679779518971,0.0025,0.0,0.0,0.0,0.0025,0.0,0.0,0.0,0.0025,0.01,-0.05,-0.01,0.02,0.0,0.0,0.0,0.02,0.0,0.0,0.0,0.02,-1.996823359375,0.047880859374999994,9.63362890625,0.04,0.0,0.0,0.0,0.04,0.0,0.0,0.0,0.04
1614383508.4251764,81,1614383508,424181938,base_imu_link,0.0686231009894521,0.07137602843181544,-0.6688238494398014,0.73679779518971,0.0025,0.0,0.0,0.0,0.0025,0.0,0.0,0.0,0.0025,0.01,-0.05,-0.01,0.02,0.0,0.0,0.0,0.02,0.0,0.0,0.0,0.02,-2.00639953125,0.05745703125,9.63362890625,0.04,0.0,0.0,0.0,0.04,0.0,0.0,0.0,0.04
1614383508.4445336,82,1614383508,443254947,base_imu_link,0.06869389742546228,0.07142837106290745,-0.6689468129643775,0.7366744855691703,0.0025,0.0,0.0,0.0,0.0025,0.0,0.0,0.0,0.0025,0.01,-0.05,-0.01,0.02,0.0,0.0,0.0,0.02,0.0,0.0,0.0,0.02,-2.0014199218749997,0.047880859374999994,9.638225468749999,0.04,0.0,0.0,0.0,0.04,0.0,0.0,0.0,0.04
1614383508.464146,83,1614383508,463172912,base_imu_link,0.06871882644497211,0.0714043880180072,-0.6692039201103577,0.7364409342049975,0.0025,0.0,0.0,0.0,0.0025,0.0,0.0,0.0,0.0025,0.01,-0.05,-0.01,0.02,0.0,0.0,0.0,0.02,0.0,0.0,0.0,0.02,-1.99184375,0.047880859374999994,9.63362890625,0.04,0.0,0.0,0.0,0.04,0.0,0.0,0.0,0.04
1614383508.4841464,84,1614383508,483225107,base_imu_link,0.06874997594421836,0.07137439697727557,-0.66952518937288,0.7361488688159541,0.0025,0.0,0.0,0.0,0.0025,0.0,0.0,0.0,0.0025,0.01,-0.05,-0.01,0.02,0.0,0.0,0.0,0.02,0.0,0.0,0.0,0.02,-1.996823359375,0.05745703125,9.63362890625,0.04,0.0,0.0,0.0,0.04,0.0,0.0,0.0,0.04
1614383508.5043323,85,1614383508,503444910,base_imu_link,0.06881421679008469,0.07131596961067821,-0.6695314154146534,0.7361428664457103,0.0025,0.0,0.0,0.0,0.0025,0.0,0.0,0.0,0.0025,0.01,-0.05,-0.01,0.02,0.0,0.0,0.0,0.02,0.0,0.0,0.0,0.02,-2.0014199218749997,0.047880859374999994,9.63362890625,0.04,0.0,0.0,0.0,0.04,0.0,0.0,0.0,0.04
1614383508.5255082,86,1614383508,523616075,base_imu_link,0.06881421679008469,0.07131596961067821,-0.6695314154146534,0.7361428664457103,0.0025,0.0,0.0,0.0,0.0025,0.0,0.0,0.0,0.0025,0.01,-0.05,-0.01,0.02,0.0,0.0,0.0,0.02,0.0,0.0,0.0,0.02,-2.0014199218749997,0.047880859374999994,9.63362890625,0.04,0.0,0.0,0.0,0.04,0.0,0.0,0.0,0.04
1614383508.5443485,87,1614383508,543401956,base_imu_link,0.06882044002044645,0.07130996416585891,-0.6695956534491081,0.7360844360045377,0.0025,0.0,0.0,0.0,0.0025,0.0,0.0,0.0,0.0025,0.01,-0.05,-0.01,0.02,0.0,0.0,0.0,0.02,0.0,0.0,0.0,0.02,-2.0014199218749997,0.05286046874999999,9.63362890625,0.04,0.0,0.0,0.0,0.04,0.0,0.0,0.0,0.04
1614383508.5647995,88,1614383508,563827037,base_imu_link,0.06886637684308154,0.07138625442401159,-0.6694615464471793,0.736194717889478,0.0025,0.0,0.0,0.0,0.0025,0.0,0.0,0.0,0.0025,0.01,-0.05,-0.01,0.02,0.0,0.0,0.0,0.02,0.0,0.0,0.0,0.02,-2.00639953125,0.04290125,9.62903234375,0.04,0.0,0.0,0.0,0.04,0.0,0.0,0.0,0.04
1614383508.5843039,89,1614383508,583513021,base_imu_link,0.06887260620675173,0.07138024442710135,-0.6695257890067919,0.7361362935453255,0.0025,0.0,0.0,0.0,0.0025,0.0,0.0,0.0,0.0025,0.01,-0.05,-0.01,0.02,0.0,0.0,0.0,0.02,0.0,0.0,0.0,0.02,-2.0014199218749997,0.0383046875,9.62903234375,0.04,0.0,0.0,0.0,0.04,0.0,0.0,0.0,0.04
1614383508.6046257,90,1614383508,603560924,base_imu_link,0.06883329854225466,0.07141464829988294,-0.6697764786996389,0.735908549753778,0.0025,0.0,0.0,0.0,0.0025,0.0,0.0,0.0,0.0025,0.01,-0.05,-0.01,0.02,0.0,0.0,0.0,0.02,0.0,0.0,0.0,0.02,-1.996823359375,0.047880859374999994,9.63362890625,0.04,0.0,0.0,0.0,0.04,0.0,0.0,0.0,0.04
1614383508.624592,91,1614383508,623718976,base_imu_link,0.0688395303838839,0.07140864118949089,-0.6698406962851716,0.7358500979276916,0.0025,0.0,0.0,0.0,0.0025,0.0,0.0,0.0,0.0025,0.01,-0.05,-0.01,0.02,0.0,0.0,0.0,0.02,0.0,0.0,0.0,0.02,-1.996823359375,0.047880859374999994,9.63362890625,0.04,0.0,0.0,0.0,0.04,0.0,0.0,0.0,0.04
1614383508.6446805,92,1614383508,643857002,base_imu_link,0.06884576170127014,0.07140263353529094,-0.6699049087695754,0.7357916404977862,0.0025,0.0,0.0,0.0,0.0025,0.0,0.0,0.0,0.0025,0.01,-0.05,-0.01,0.02,0.0,0.0,0.0,0.02,0.0,0.0,0.0,0.02,-1.99184375,0.0383046875,9.63362890625,0.04,0.0,0.0,0.0,0.04,0.0,0.0,0.0,0.04
1614383508.6643693,93,1614383508,663606882,base_imu_link,0.06879978791537432,0.07132638305003164,-0.6700389550337377,0.7356812726997313,0.0025,0.0,0.0,0.0,0.0025,0.0,0.0,0.0,0.0025,0.01,-0.05,-0.01,0.02,0.0,0.0,0.0,0.02,0.0,0.0,0.0,0.02,-1.996823359375,0.04290125,9.62903234375,0.04,0.0,0.0,0.0,0.04,0.0,0.0,0.0,0.04
1614383508.684628,94,1614383508,683855056,base_imu_link,0.06874804531175725,0.07137285699745818,-0.6701611195273842,0.7355703198360004,0.0025,0.0,0.0,0.0,0.0025,0.0,0.0,0.0,0.0025,0.01,-0.05,-0.01,0.02,0.0,0.0,0.0,0.02,0.0,0.0,0.0,0.02,-1.9872471875,0.05745703125,9.63362890625,0.04,0.0,0.0,0.0,0.04,0.0,0.0,0.0,0.04
1614383508.7047012,95,1614383508,704056024,base_imu_link,0.0688433458840981,0.07128434234586696,-0.6704882321070358,0.7352718319572573,0.0025,0.0,0.0,0.0,0.0025,0.0,0.0,0.0,0.0025,0.01,-0.05,-0.01,0.02,0.0,0.0,0.0,0.02,0.0,0.0,0.0,0.02,-1.99184375,0.047880859374999994,9.62903234375,0.04,0.0,0.0,0.0,0.04,0.0,0.0,0.0,0.04
1614383508.7251692,96,1614383508,724030017,base_imu_link,0.06881845876084591,0.07130836886356383,-0.6702315329764729,0.7355058317021059,0.0025,0.0,0.0,0.0,0.0025,0.0,0.0,0.0,0.0025,0.01,-0.05,-0.01,0.02,0.0,0.0,0.0,0.02,0.0,0.0,0.0,0.02,-1.996823359375,0.0383046875,9.63362890625,0.04,0.0,0.0,0.0,0.04,0.0,0.0,0.0,0.04
1614383508.7446918,97,1614383508,743846893,base_imu_link,0.06877295494990414,0.07134885505476246,-0.670417841172842,0.7353363446661528,0.0025,0.0,0.0,0.0,0.0025,0.0,0.0,0.0,0.0025,0.01,-0.05,-0.01,0.02,0.0,0.0,0.0,0.02,0.0,0.0,0.0,0.02,-1.996823359375,0.05286046874999999,9.624052734374999,0.04,0.0,0.0,0.0,0.04,0.0,0.0,0.0,0.04
1614383508.7647178,98,1614383508,763746976,base_imu_link,0.0688433458840981,0.07128434234586696,-0.6704882321070358,0.7352718319572573,0.0025,0.0,0.0,0.0,0.0025,0.0,0.0,0.0,0.0025,0.01,-0.05,-0.01,0.02,0.0,0.0,0.0,0.02,0.0,0.0,0.0,0.02,-1.99184375,0.04290125,9.624052734374999,0.04,0.0,0.0,0.0,0.04,0.0,0.0,0.0,0.04
1614383508.7850952,99,1614383508,783967971,base_imu_link,0.06884956635434943,0.0712783343591751,-0.6705523941257484,0.7352133180213932,0.0025,0.0,0.0,0.0,0.0025,0.0,0.0,0.0,0.0025,0.01,-0.05,-0.01,0.02,0.0,0.0,0.0,0.02,0.0,0.0,0.0,0.02,-1.9822675781249999,0.033708125,9.62903234375,0.04,0.0,0.0,0.0,0.04,0.0,0.0,0.0,0.04
1614383508.8049462,100,1614383508,804014921,base_imu_link,0.06871448538149888,0.07128465206344003,-0.6704234817068183,0.7353428948830997,0.0025,0.0,0.0,0.0,0.0025,0.0,0.0,0.0,0.0025,0.01,-0.05,-0.01,0.02,0.0,0.0,0.0,0.02,0.0,0.0,0.0,0.02,-1.99184375,0.047880859374999994,9.624052734374999,0.04,0.0,0.0,0.0,0.04,0.0,0.0,0.0,0.04
1614383508.8248558,101,1614383508,824085950,base_imu_link,0.06871448538149888,0.07128465206344003,-0.6704234817068183,0.7353428948830997,0.0025,0.0,0.0,0.0,0.0025,0.0,0.0,0.0,0.0025,0.01,-0.05,-0.01,0.02,0.0,0.0,0.0,0.02,0.0,0.0,0.0,0.02,-1.996823359375,0.05745703125,9.62903234375,0.04,0.0,0.0,0.0,0.04,0.0,0.0,0.0,0.04
1614383508.8449912,102,1614383508,844118118,base_imu_link,0.06879730049728427,0.07120813765570783,-0.6706221876850851,0.7351613523304679,0.0025,0.0,0.0,0.0,0.0025,0.0,0.0,0.0,0.0025,0.01,-0.05,-0.01,0.02,0.0,0.0,0.0,0.02,0.0,0.0,0.0,0.02,-1.996823359375,0.04290125,9.63362890625,0.04,0.0,0.0,0.0,0.04,0.0,0.0,0.0,0.04
1614383508.865031,103,1614383508,864094972,base_imu_link,0.06880351431759721,0.07120213368752415,-0.6706863400621217,0.735102826705195,0.0025,0.0,0.0,0.0,0.0025,0.0,0.0,0.0,0.0025,0.01,-0.05,-0.01,0.02,0.0,0.0,0.0,0.02,0.0,0.0,0.0,0.02,-2.0014199218749997,0.047880859374999994,9.62903234375,0.04,0.0,0.0,0.0,0.04,0.0,0.0,0.0,0.04
1614383508.8849607,104,1614383508,884109020,base_imu_link,0.06888066083986742,0.07124828628439764,-0.6708731276113137,0.7349206643664428,0.0025,0.0,0.0,0.0,0.0025,0.0,0.0,0.0,0.0025,0.01,-0.05,-0.01,0.02,0.0,0.0,0.0,0.02,0.0,0.0,0.0,0.02,-2.0014199218749997,0.06243664062499999,9.62903234375,0.04,0.0,0.0,0.0,0.04,0.0,0.0,0.0,0.04
1614383508.9050841,105,1614383508,904210090,base_imu_link,0.06892615471100375,0.07120778855363173,-0.6706869194486352,0.7350902612105238,0.0025,0.0,0.0,0.0,0.0025,0.0,0.0,0.0,0.0025,0.01,-0.05,-0.01,0.02,0.0,0.0,0.0,0.02,0.0,0.0,0.0,0.02,-2.0014199218749997,0.05286046874999999,9.624052734374999,0.04,0.0,0.0,0.0,0.04,0.0,0.0,0.0,0.04
1614383508.9255922,106,1614383508,924261093,base_imu_link,0.06900330161248516,0.07125390899283655,-0.6708737041988446,0.7349080880180447,0.0025,0.0,0.0,0.0,0.0025,0.0,0.0,0.0,0.0025,0.01,-0.05,-0.01,0.02,0.0,0.0,0.0,0.02,0.0,0.0,0.0,0.02,-1.996823359375,0.0383046875,9.624052734374999,0.04,0.0,0.0,0.0,0.04,0.0,0.0,0.0,0.04
1614383508.945106,107,1614383508,944226980,base_imu_link,0.06895783571459073,0.0712944028207169,-0.6710598606385764,0.7347384490141583,0.0025,0.0,0.0,0.0,0.0025,0.0,0.0,0.0,0.0025,0.01,-0.05,-0.01,0.02,0.0,0.0,0.0,0.02,0.0,0.0,0.0,0.02,-1.996823359375,0.05745703125,9.624052734374999,0.04,0.0,0.0,0.0,0.04,0.0,0.0,0.0,0.04
1614383508.9648051,108,1614383508,964147090,base_imu_link,0.06904060061146243,0.07121776918291925,-0.6712584091944103,0.7345567186443852,0.0025,0.0,0.0,0.0,0.0025,0.0,0.0,0.0,0.0025,0.01,-0.05,-0.01,0.02,0.0,0.0,0.0,0.02,0.0,0.0,0.0,0.02,-2.0014199218749997,0.05745703125,9.63362890625,0.04,0.0,0.0,0.0,0.04,0.0,0.0,0.0,0.04
1614383508.9853177,109,1614383508,984519958,base_imu_link,0.06907788068256748,0.07118160984824662,-0.671642930160676,0.7342051478878353,0.0025,0.0,0.0,0.0,0.0025,0.0,0.0,0.0,0.0025,0.01,-0.05,-0.01,0.02,0.0,0.0,0.0,0.02,0.0,0.0,0.0,0.02,-2.0014199218749997,0.04290125,9.63362890625,0.04,0.0,0.0,0.0,0.04,0.0,0.0,0.0,0.04
1614383509.005394,110,1614383509,4503965,base_imu_link,0.06913645442898636,0.07124571570685222,-0.6716372797327235,0.7341985856262832,0.0025,0.0,0.0,0.0,0.0025,0.0,0.0,0.0,0.0025,0.01,-0.05,-0.01,0.02,0.0,0.0,0.0,0.02,0.0,0.0,0.0,0.02,-2.0014199218749997,0.05286046874999999,9.638225468749999,0.04,0.0,0.0,0.0,0.04,0.0,0.0,0.0,0.04
1614383509.025378,111,1614383509,24483919,base_imu_link,0.06913645442898636,0.07124571570685222,-0.6716372797327235,0.7341985856262832,0.0025,0.0,0.0,0.0,0.0025,0.0,0.0,0.0,0.0025,0.01,-0.05,-0.01,0.02,0.0,0.0,0.0,0.02,0.0,0.0,0.0,0.02,-2.00639953125,0.067033203125,9.638225468749999,0.04,0.0,0.0,0.0,0.04,0.0,0.0,0.0,0.04
1614383509.0452619,112,1614383509,44435977,base_imu_link,0.06918188596756132,0.0712052182414412,-0.6714512603622361,0.7343683602301535,0.0025,0.0,0.0,0.0,0.0025,0.0,0.0,0.0,0.0025,0.01,-0.05,-0.01,0.02,0.0,0.0,0.0,0.02,0.0,0.0,0.0,0.02,-1.996823359375,0.05286046874999999,9.643205078125,0.04,0.0,0.0,0.0,0.04,0.0,0.0,0.0,0.04
1614383509.065172,113,1614383509,64378023,base_imu_link,0.06920052507906625,0.07118710402609067,-0.6716434945368954,0.7341925495368551,0.0025,0.0,0.0,0.0,0.0025,0.0,0.0,0.0,0.0025,0.01,-0.05,-0.01,0.02,0.0,0.0,0.0,0.02,0.0,0.0,0.0,0.02,-1.99184375,0.047880859374999994,9.638225468749999,0.04,0.0,0.0,0.0,0.04,0.0,0.0,0.0,0.04
1614383509.085293,114,1614383509,84522008,base_imu_link,0.06920052507906625,0.07118710402609067,-0.6716434945368954,0.7341925495368551,0.0025,0.0,0.0,0.0,0.0025,0.0,0.0,0.0,0.0025,0.01,-0.05,-0.01,0.02,0.0,0.0,0.0,0.02,0.0,0.0,0.0,0.02,-1.9872471875,0.05745703125,9.62903234375,0.04,0.0,0.0,0.0,0.04,0.0,0.0,0.0,0.04
1614383509.1057112,115,1614383509,104768991,base_imu_link,0.06915436415721371,0.0711109290443123,-0.6717772710596362,0.734081880839007,0.0025,0.0,0.0,0.0,0.0025,0.0,0.0,0.0,0.0025,0.01,-0.05,-0.01,0.02,0.0,0.0,0.0,0.02,0.0,0.0,0.0,0.02,-1.996823359375,0.05286046874999999,9.638225468749999,0.04,0.0,0.0,0.0,0.04,0.0,0.0,0.0,0.04
1614383509.125699,116,1614383509,124922990,base_imu_link,0.06918538556937115,0.07108074799234454,-0.6720975107460145,0.7337886928383927,0.0025,0.0,0.0,0.0,0.0025,0.0,0.0,0.0,0.0025,0.01,-0.05,-0.01,0.02,0.0,0.0,0.0,0.02,0.0,0.0,0.0,0.02,-1.996823359375,0.06243664062499999,9.63362890625,0.04,0.0,0.0,0.0,0.04,0.0,0.0,0.0,0.04
1614383509.145668,117,1614383509,144853115,base_imu_link,0.06924322233859936,0.07102813903099862,-0.6720396739767864,0.7338413017997386,0.0025,0.0,0.0,0.0,0.0025,0.0,0.0,0.0,0.0025,0.01,-0.05,-0.01,0.02,0.0,0.0,0.0,0.02,0.0,0.0,0.0,0.02,-1.99184375,0.067033203125,9.638225468749999,0.04,0.0,0.0,0.0,0.04,0.0,0.0,0.0,0.04
1614383509.1656134,118,1614383509,164544105,base_imu_link,0.06925484309772671,0.07089937168121746,-0.6721155389836421,0.7337831750997336,0.0025,0.0,0.0,0.0,0.0025,0.0,0.0,0.0,0.0025,0.01,-0.05,-0.01,0.02,0.0,0.0,0.0,0.02,0.0,0.0,0.0,0.02,-1.99184375,0.067033203125,9.62903234375,0.04,0.0,0.0,0.0,0.04,0.0,0.0,0.0,0.04
1614383509.1861732,119,1614383509,185105085,base_imu_link,0.06931887749594869,0.0708407182657817,-0.6721217235617749,0.733777128680527,0.0025,0.0,0.0,0.0,0.0025,0.0,0.0,0.0,0.0025,0.01,-0.05,-0.01,0.02,0.0,0.0,0.0,0.02,0.0,0.0,0.0,0.02,-2.0014199218749997,0.05745703125,9.638225468749999,0.04,0.0,0.0,0.0,0.04,0.0,0.0,0.0,0.04
1614383509.2058218,120,1614383509,204953908,base_imu_link,0.06938367597289033,0.07089873624360678,-0.6721801276110774,0.7337118990123467,0.0025,0.0,0.0,0.0,0.0025,0.0,0.0,0.0,0.0025,0.01,-0.05,-0.01,0.02,0.0,0.0,0.0,0.02,0.0,0.0,0.0,0.02,-1.99184375,0.05745703125,9.638225468749999,0.04,0.0,0.0,0.0,0.04,0.0,0.0,0.0,0.04
1614383509.2261906,121,1614383509,225033998,base_imu_link,0.06930651240244243,0.07085281561321534,-0.6719936450567129,0.73389442487437,0.0025,0.0,0.0,0.0,0.0025,0.0,0.0,0.0,0.0025,0.01,-0.05,-0.01,0.02,0.0,0.0,0.0,0.02,0.0,0.0,0.0,0.02,-1.996823359375,0.06243664062499999,9.63362890625,0.04,0.0,0.0,0.0,0.04,0.0,0.0,0.0,0.04
1614383509.2456222,122,1614383509,244868993,base_imu_link,0.06930651240244243,0.07085281561321534,-0.6719936450567129,0.73389442487437,0.0025,0.0,0.0,0.0,0.0025,0.0,0.0,0.0,0.0025,0.01,-0.05,-0.01,0.02,0.0,0.0,0.0,0.02,0.0,0.0,0.0,0.02,-1.996823359375,0.047880859374999994,9.643205078125,0.04,0.0,0.0,0.0,0.04,0.0,0.0,0.0,0.04
1614383509.2658648,123,1614383509,264898061,base_imu_link,0.0692879608038062,0.07087095758743783,-0.6718014889189073,0.7340703272470758,0.0025,0.0,0.0,0.0,0.0025,0.0,0.0,0.0,0.0025,0.01,-0.05,-0.01,0.02,0.0,0.0,0.0,0.02,0.0,0.0,0.0,0.02,-1.99184375,0.047880859374999994,9.643205078125,0.04,0.0,0.0,0.0,0.04,0.0,0.0,0.0,0.04
1614383509.286011,124,1614383509,284895896,base_imu_link,0.06923627931251121,0.0709175001268523,-0.6719234119667817,0.733959109388007,0.0025,0.0,0.0,0.0,0.0025,0.0,0.0,0.0,0.0025,0.01,-0.05,-0.01,0.02,0.0,0.0,0.0,0.02,0.0,0.0,0.0,0.02,-1.996823359375,0.05745703125,9.62903234375,0.04,0.0,0.0,0.0,0.04,0.0,0.0,0.0,0.04
1614383509.3059552,125,1614383509,305087089,base_imu_link,0.06930032906396683,0.07085886347759263,-0.6719295981276515,0.7339530645881263,0.0025,0.0,0.0,0.0,0.0025,0.0,0.0,0.0,0.0025,0.01,-0.05,-0.01,0.02,0.0,0.0,0.0,0.02,0.0,0.0,0.0,0.02,-2.0014199218749997,0.04290125,9.63362890625,0.04,0.0,0.0,0.0,0.04,0.0,0.0,0.0,0.04
1614383509.3262415,126,1614383509,325428009,base_imu_link,0.06928248456128078,0.07099368070962565,-0.6717896720262799,0.7340697999448953,0.0025,0.0,0.0,0.0,0.0025,0.0,0.0,0.0,0.0025,0.01,-0.05,-0.01,0.02,0.0,0.0,0.0,0.02,0.0,0.0,0.0,0.02,-1.996823359375,0.047880859374999994,9.638225468749999,0.04,0.0,0.0,0.0,0.04,0.0,0.0,0.0,0.04
1614383509.346082,127,1614383509,345050096,base_imu_link,0.0692948742407502,0.0709815875536959,-0.6719177811431727,0.7339525393483907,0.0025,0.0,0.0,0.0,0.0025,0.0,0.0,0.0,0.0025,0.01,-0.05,-0.01,0.02,0.0,0.0,0.0,0.02,0.0,0.0,0.0,0.02,-2.0014199218749997,0.05745703125,9.63362890625,0.04,0.0,0.0,0.0,0.04,0.0,0.0,0.0,0.04
1614383509.3664703,128,1614383509,365283966,base_imu_link,0.06928248456128078,0.07099368070962565,-0.6717896720262799,0.7340697999448953,0.0025,0.0,0.0,0.0,0.0025,0.0,0.0,0.0,0.0025,0.01,-0.05,-0.01,0.02,0.0,0.0,0.0,0.02,0.0,0.0,0.0,0.02,-2.0014199218749997,0.04290125,9.62903234375,0.04,0.0,0.0,0.0,0.04,0.0,0.0,0.0,0.04
1614383509.3859773,129,1614383509,385157108,base_imu_link,0.06923082453515117,0.07104022317126182,-0.6719115842726519,0.7339585836722502,0.0025,0.0,0.0,0.0,0.0025,0.0,0.0,0.0,0.0025,0.01,-0.05,-0.01,0.02,0.0,0.0,0.0,0.02,0.0,0.0,0.0,0.02,-1.996823359375,0.0383046875,9.638225468749999,0.04,0.0,0.0,0.0,0.04,0.0,0.0,0.0,0.04
1614383509.4062994,130,1614383509,405325889,base_imu_link,0.06923702370051033,0.07103418137160834,-0.6719756316834127,0.7338999455304783,0.0025,0.0,0.0,0.0,0.0025,0.0,0.0,0.0,0.0025,0.01,-0.05,-0.01,0.02,0.0,0.0,0.0,0.02,0.0,0.0,0.0,0.02,-2.00639953125,0.047880859374999994,9.638225468749999,0.04,0.0,0.0,0.0,0.04,0.0,0.0,0.0,0.04
1614383509.4263253,131,1614383509,425455093,base_imu_link,0.06921294851852106,0.07117502517184301,-0.6717716250798598,0.7340753144512655,0.0025,0.0,0.0,0.0,0.0025,0.0,0.0,0.0,0.0025,0.01,-0.05,-0.01,0.02,0.0,0.0,0.0,0.02,0.0,0.0,0.0,0.02,-1.996823359375,0.05745703125,9.63362890625,0.04,0.0,0.0,0.0,0.04,0.0,0.0,0.0,0.04
1614383509.4462729,132,1614383509,445272922,base_imu_link,0.06930182849702982,0.07109221519748557,-0.6720340312969312,0.7338347322688387,0.0025,0.0,0.0,0.0,0.0025,0.0,0.0,0.0,0.0025,0.01,-0.05,-0.01,0.02,0.0,0.0,0.0,0.02,0.0,0.0,0.0,0.02,-1.996823359375,0.04290125,9.63362890625,0.04,0.0,0.0,0.0,0.04,0.0,0.0,0.0,0.04
1614383509.4666455,133,1614383509,465539932,base_imu_link,0.06922536984962888,0.07116294414948009,-0.6718997351594902,0.733958057004463,0.0025,0.0,0.0,0.0,0.0025,0.0,0.0,0.0,0.0025,0.01,-0.05,-0.01,0.02,0.0,0.0,0.0,0.02,0.0,0.0,0.0,0.02,-1.996823359375,0.06243664062499999,9.63362890625,0.04,0.0,0.0,0.0,0.04,0.0,0.0,0.0,0.04
1614383509.4861264,134,1614383509,485295057,base_imu_link,0.069264595202154,0.07112849180320832,-0.6716497042262098,0.734186507856231,0.0025,0.0,0.0,0.0,0.0025,0.0,0.0,0.0,0.0025,0.01,-0.05,-0.01,0.02,0.0,0.0,0.0,0.02,0.0,0.0,0.0,0.02,-2.0014199218749997,0.0720128125,9.638225468749999,0.04,0.0,0.0,0.0,0.04,0.0,0.0,0.0,0.04
1614383509.5064318,135,1614383509,505506038,base_imu_link,0.06931625970800656,0.07108197809080126,-0.6715277599079552,0.7342976754721444,0.0025,0.0,0.0,0.0,0.0025,0.0,0.0,0.0,0.0025,0.01,-0.05,-0.01,0.02,0.0,0.0,0.0,0.02,0.0,0.0,0.0,0.02,-1.99184375,0.05745703125,9.643205078125,0.04,0.0,0.0,0.0,0.04,0.0,0.0,0.0,0.04
1614383509.5267365,136,1614383509,525598049,base_imu_link,0.0692638960850724,0.07101181638854673,-0.6715974699823789,0.7342456489115773,0.0025,0.0,0.0,0.0,0.0025,0.0,0.0,0.0,0.0025,0.01,-0.05,-0.01,0.02,0.0,0.0,0.0,0.02,0.0,0.0,0.0,0.02,-1.99184375,0.047880859374999994,9.643205078125,0.04,0.0,0.0,0.0,0.04,0.0,0.0,0.0,0.04
1614383509.546325,137,1614383509,545402050,base_imu_link,0.06925769887132388,0.07101786053334333,-0.6715333924047471,0.734304254051199,0.0025,0.0,0.0,0.0,0.0025,0.0,0.0,0.0,0.0025,0.01,-0.05,-0.01,0.02,0.0,0.0,0.0,0.02,0.0,0.0,0.0,0.02,-2.0014199218749997,0.05745703125,9.643205078125,0.04,0.0,0.0,0.0,0.04,0.0,0.0,0.0,0.04
1614383509.567539,138,1614383509,566612958,base_imu_link,0.06921430360975665,0.07106015440104818,-0.671084706196116,0.7347143334262562,0.0025,0.0,0.0,0.0,0.0025,0.0,0.0,0.0,0.0025,0.01,-0.05,-0.01,0.02,0.0,0.0,0.0,0.02,0.0,0.0,0.0,0.02,-1.996823359375,0.047880859374999994,9.638225468749999,0.04,0.0,0.0,0.0,0.04,0.0,0.0,0.0,0.04
1614383509.5891871,139,1614383509,585804939,base_imu_link,0.06922050451450662,0.07105411404304152,-0.671148819561633,0.7346557674403313,0.0025,0.0,0.0,0.0,0.0025,0.0,0.0,0.0,0.0025,0.01,-0.05,-0.01,0.02,0.0,0.0,0.0,0.02,0.0,0.0,0.0,0.02,-1.996823359375,0.0383046875,9.638225468749999,0.04,0.0,0.0,0.0,0.04,0.0,0.0,0.0,0.04
1614383509.606581,140,1614383509,605650901,base_imu_link,0.06915018742539007,0.07111871731881135,-0.6710785024725164,0.7347203707161011,0.0025,0.0,0.0,0.0,0.0025,0.0,0.0,0.0,0.0025,0.01,-0.05,-0.01,0.02,0.0,0.0,0.0,0.02,0.0,0.0,0.0,0.02,-2.0014199218749997,0.05286046874999999,9.638225468749999,0.04,0.0,0.0,0.0,0.04,0.0,0.0,0.0,0.04
1614383509.6267283,141,1614383509,626032114,base_imu_link,0.06913156621920809,0.07113681835813872,-0.670886130133959,0.7348960334767368,0.0025,0.0,0.0,0.0,0.0025,0.0,0.0,0.0,0.0025,0.01,-0.05,-0.01,0.02,0.0,0.0,0.0,0.02,0.0,0.0,0.0,0.02,-1.996823359375,0.06243664062499999,9.638225468749999,0.04,0.0,0.0,0.0,0.04,0.0,0.0,0.0,0.04
1614383509.6470222,142,1614383509,646135091,base_imu_link,0.06911914944933975,0.07114888300907761,-0.67075785636199,0.7350131140018036,0.0025,0.0,0.0,0.0,0.0025,0.0,0.0,0.0,0.0025,0.01,-0.05,-0.01,0.02,0.0,0.0,0.0,0.02,0.0,0.0,0.0,0.02,-2.00639953125,0.05286046874999999,9.652781249999999,0.04,0.0,0.0,0.0,0.04,0.0,0.0,0.0,0.04
1614383509.667354,143,1614383509,666069030,base_imu_link,0.06919007165477052,0.07120098650387542,-0.670880497780456,0.7348894550904445,0.0025,0.0,0.0,0.0,0.0025,0.0,0.0,0.0,0.0025,0.01,-0.05,-0.01,0.02,0.0,0.0,0.0,0.02,0.0,0.0,0.0,0.02,-1.996823359375,0.05286046874999999,9.643205078125,0.04,0.0,0.0,0.0,0.04,0.0,0.0,0.0,0.04
1614383509.6866436,144,1614383509,685853958,base_imu_link,0.06917764368455696,0.07121306136496172,-0.6707522251567177,0.7350065346325804,0.0025,0.0,0.0,0.0,0.0025,0.0,0.0,0.0,0.0025,0.01,-0.05,-0.01,0.02,0.0,0.0,0.0,0.02,0.0,0.0,0.0,0.02,-1.99184375,0.067033203125,9.638225468749999,0.04,0.0,0.0,0.0,0.04,0.0,0.0,0.0,0.04
1614383509.7070808,145,1614383509,706006050,base_imu_link,0.06916467740023015,0.07110845777969364,-0.6705716153313197,0.7351826598500947,0.0025,0.0,0.0,0.0,0.0025,0.0,0.0,0.0,0.0025,0.01,-0.05,-0.01,0.02,0.0,0.0,0.0,0.02,0.0,0.0,0.0,0.02,-1.99184375,0.05745703125,9.638225468749999,0.04,0.0,0.0,0.0,0.04,0.0,0.0,0.0,0.04
1614383509.7270496,146,1614383509,726085901,base_imu_link,0.06920810217790963,0.07106619421790085,-0.6710205877199968,0.7347728938170117,0.0025,0.0,0.0,0.0,0.0025,0.0,0.0,0.0,0.0025,0.01,-0.05,-0.01,0.02,0.0,0.0,0.0,0.02,0.0,0.0,0.0,0.02,-1.996823359375,0.047880859374999994,9.638225468749999,0.04,0.0,0.0,0.0,0.04,0.0,0.0,0.0,0.04
1614383509.7467873,147,1614383509,745846033,base_imu_link,0.06919569773311328,0.0710782722279601,-0.6708923354379048,0.7348899978112298,0.0025,0.0,0.0,0.0,0.0025,0.0,0.0,0.0,0.0025,0.01,-0.05,-0.01,0.02,0.0,0.0,0.0,0.02,0.0,0.0,0.0,0.02,-2.0014199218749997,0.06243664062499999,9.638225468749999,0.04,0.0,0.0,0.0,0.04,0.0,0.0,0.0,0.04
1614383509.7667966,148,1614383509,766067981,base_imu_link,0.06920810217790963,0.07106619421790085,-0.6710205877199968,0.7347728938170117,0.0025,0.0,0.0,0.0,0.0025,0.0,0.0,0.0,0.0025,0.01,-0.05,-0.01,0.02,0.0,0.0,0.0,0.02,0.0,0.0,0.0,0.02,-2.00639953125,0.05745703125,9.638225468749999,0.04,0.0,0.0,0.0,0.04,0.0,0.0,0.0,0.04
1614383509.7870748,149,1614383509,786124944,base_imu_link,0.06931212950261575,0.07108994357931969,-0.6708287817759148,0.7349359116050485,0.0025,0.0,0.0,0.0,0.0025,0.0,0.0,0.0,0.0025,0.01,-0.05,-0.01,0.02,0.0,0.0,0.0,0.02,0.0,0.0,0.0,0.02,-2.00639953125,0.05286046874999999,9.648184687499999,0.04,0.0,0.0,0.0,0.04,0.0,0.0,0.0,0.04
1614383509.8073199,150,1614383509,806135892,base_imu_link,0.06925420259438045,0.07114244086496802,-0.6708867086841502,0.7348834143194002,0.0025,0.0,0.0,0.0,0.0025,0.0,0.0,0.0,0.0025,0.01,-0.05,-0.01,0.02,0.0,0.0,0.0,0.02,0.0,0.0,0.0,0.02,-2.00639953125,0.05745703125,9.63362890625,0.04,0.0,0.0,0.0,0.04,0.0,0.0,0.0,0.04
1614383509.8273048,151,1614383509,826337099,base_imu_link,0.06941408029231243,0.07111172789278776,-0.6712719736716489,0.7345193972770517,0.0025,0.0,0.0,0.0,0.0025,0.0,0.0,0.0,0.0025,0.01,-0.05,-0.01,0.02,0.0,0.0,0.0,0.02,0.0,0.0,0.0,0.02,-2.0014199218749997,0.0720128125,9.643205078125,0.04,0.0,0.0,0.0,0.04,0.0,0.0,0.0,0.04
1614383509.8472202,152,1614383509,846029043,base_imu_link,0.06950297693163882,0.07102889130357636,-0.6715345294053527,0.7342789719269893,0.0025,0.0,0.0,0.0,0.0025,0.0,0.0,0.0,0.0025,0.01,-0.05,-0.01,0.02,0.0,0.0,0.0,0.02,0.0,0.0,0.0,0.02,-2.0109960937499998,0.05286046874999999,9.638225468749999,0.04,0.0,0.0,0.0,0.04,0.0,0.0,0.0,0.04
1614383509.8672094,153,1614383509,866466999,base_imu_link,0.06943269492014442,0.0710935528923097,-0.6714642473938583,0.7343436335157225,0.0025,0.0,0.0,0.0,0.0025,0.0,0.0,0.0,0.0025,0.01,-0.05,-0.01,0.02,0.0,0.0,0.0,0.02,0.0,0.0,0.0,0.02,-2.00639953125,0.05286046874999999,9.638225468749999,0.04,0.0,0.0,0.0,0.04,0.0,0.0,0.0,0.04
1614383509.8875716,154,1614383509,886529922,base_imu_link,0.06951608301003409,0.0711334136123818,-0.6717149019098272,0.734102610145927,0.0025,0.0,0.0,0.0,0.0025,0.0,0.0,0.0,0.0025,0.01,-0.05,-0.01,0.02,0.0,0.0,0.0,0.02,0.0,0.0,0.0,0.02,-1.996823359375,0.0720128125,9.63362890625,0.04,0.0,0.0,0.0,0.04,0.0,0.0,0.0,0.04
1614383509.9073296,155,1614383509,906193971,base_imu_link,0.06954015804314047,0.07099248989513064,-0.6719189049059339,0.7339272566323145,0.0025,0.0,0.0,0.0,0.0025,0.0,0.0,0.0,0.0025,0.01,-0.05,-0.01,0.02,0.0,0.0,0.0,0.02,0.0,0.0,0.0,0.02,-1.99184375,0.06243664062499999,9.63362890625,0.04,0.0,0.0,0.0,0.04,0.0,0.0,0.0,0.04
1614383509.9289482,156,1614383509,927567958,base_imu_link,0.06953396251489476,0.07099855814840463,-0.671854855112046,0.7339858898236372,0.0025,0.0,0.0,0.0,0.0025,0.0,0.0,0.0,0.0025,0.01,-0.05,-0.01,0.02,0.0,0.0,0.0,0.02,0.0,0.0,0.0,0.02,-1.996823359375,0.04290125,9.62903234375,0.04,0.0,0.0,0.0,0.04,0.0,0.0,0.0,0.04
1614383509.9470887,157,1614383509,946244001,base_imu_link,0.06947611054294066,0.07105112561072188,-0.671912707084,0.73393332236132,0.0025,0.0,0.0,0.0,0.0025,0.0,0.0,0.0,0.0025,0.01,-0.05,-0.01,0.02,0.0,0.0,0.0,0.02,0.0,0.0,0.0,0.02,-2.0014199218749997,0.05745703125,9.624052734374999,0.04,0.0,0.0,0.0,0.04,0.0,0.0,0.0,0.04
1614383509.9670615,158,1614383509,966252088,base_imu_link,0.06942649057289764,0.0710996117672723,-0.6714001612659639,0.7344022270291073,0.0025,0.0,0.0,0.0,0.0025,0.0,0.0,0.0,0.0025,0.01,-0.05,-0.01,0.02,0.0,0.0,0.0,0.02,0.0,0.0,0.0,0.02,-2.00639953125,0.047880859374999994,9.62903234375,0.04,0.0,0.0,0.0,0.04,0.0,0.0,0.0,0.04
1614383509.987939,159,1614383509,986680030,base_imu_link,0.0694850385866855,0.07116373895331078,-0.6713945252876101,0.7343956311720656,0.0025,0.0,0.0,0.0,0.0025,0.0,0.0,0.0,0.0025,0.01,-0.05,-0.01,0.02,0.0,0.0,0.0,0.02,0.0,0.0,0.0,0.02,-2.0014199218749997,0.0383046875,9.63362890625,0.04,0.0,0.0,0.0,0.04,0.0,0.0,0.0,0.04
1614383510.0072496,160,1614383510,6510972,base_imu_link,0.06945823261974,0.07118597042162125,-0.6717727523001213,0.7340500533366877,0.0025,0.0,0.0,0.0,0.0025,0.0,0.0,0.0,0.0025,0.01,-0.05,-0.01,0.02,0.0,0.0,0.0,0.02,0.0,0.0,0.0,0.02,-2.0014199218749997,0.047880859374999994,9.63362890625,0.04,0.0,0.0,0.0,0.04,0.0,0.0,0.0,0.04
1614383510.0275054,161,1614383510,26652097,base_imu_link,0.06945823261974,0.07118597042162125,-0.6717727523001213,0.7340500533366877,0.0025,0.0,0.0,0.0,0.0025,0.0,0.0,0.0,0.0025,0.01,-0.05,-0.01,0.02,0.0,0.0,0.0,0.02,0.0,0.0,0.0,0.02,-1.99184375,0.05286046874999999,9.619073125,0.04,0.0,0.0,0.0,0.04,0.0,0.0,0.0,0.04
1614383510.0474353,162,1614383510,46629905,base_imu_link,0.06945202020744512,0.07119203152481662,-0.6717086917907558,0.7341086737733218,0.0025,0.0,0.0,0.0,0.0025,0.0,0.0,0.0,0.0025,0.01,-0.05,-0.01,0.02,0.0,0.0,0.0,0.02,0.0,0.0,0.0,0.02,-2.0014199218749997,0.04290125,9.619073125,0.04,0.0,0.0,0.0,0.04,0.0,0.0,0.0,0.04
1614383510.068272,163,1614383510,66677093,base_imu_link,0.06938173881965991,0.07125670386532668,-0.6716384104029706,0.734173346113832,0.0025,0.0,0.0,0.0,0.0025,0.0,0.0,0.0,0.0025,0.01,-0.05,-0.01,0.02,0.0,0.0,0.0,0.02,0.0,0.0,0.0,0.02,-1.996823359375,0.04290125,9.62903234375,0.04,0.0,0.0,0.0,0.04,0.0,0.0,0.0,0.04
1614383510.087507,164,1614383510,86652994,base_imu_link,0.06938795687594877,0.07125064889509312,-0.6717024765563302,0.7341147318101594,0.0025,0.0,0.0,0.0,0.0025,0.0,0.0,0.0,0.0025,0.01,-0.05,-0.01,0.02,0.0,0.0,0.0,0.02,0.0,0.0,0.0,0.02,-1.996823359375,0.06243664062499999,9.62903234375,0.04,0.0,0.0,0.0,0.04,0.0,0.0,0.0,0.04
1614383510.1075418,165,1614383510,106653928,base_imu_link,0.06938173881965991,0.07125670386532668,-0.6716384104029706,0.734173346113832,0.0025,0.0,0.0,0.0,0.0025,0.0,0.0,0.0,0.0025,0.01,-0.05,-0.01,0.02,0.0,0.0,0.0,0.02,0.0,0.0,0.0,0.02,-1.996823359375,0.0383046875,9.62903234375,0.04,0.0,0.0,0.0,0.04,0.0,0.0,0.0,0.04
1614383510.1278434,166,1614383510,127027034,base_imu_link,0.06934255936223793,0.07129111432649077,-0.6718884255576234,0.733944909431818,0.0025,0.0,0.0,0.0,0.0025,0.0,0.0,0.0,0.0025,0.01,-0.05,-0.01,0.02,0.0,0.0,0.0,0.02,0.0,0.0,0.0,0.02,-1.996823359375,0.04290125,9.62903234375,0.04,0.0,0.0,0.0,0.04,0.0,0.0,0.0,0.04
1614383510.147868,167,1614383510,146958112,base_imu_link,0.06935500095275134,0.07127901068100015,-0.6720165128755057,0.733827631601473,0.0025,0.0,0.0,0.0,0.0025,0.0,0.0,0.0,0.0025,0.01,-0.05,-0.01,0.02,0.0,0.0,0.0,0.02,0.0,0.0,0.0,0.02,-2.00639953125,0.05286046874999999,9.62903234375,0.04,0.0,0.0,0.0,0.04,0.0,0.0,0.0,0.04
1614383510.168284,168,1614383510,167490959,base_imu_link,0.0693612209557789,0.07127295804400074,-0.6720805488581428,0.7337689843034517,0.0025,0.0,0.0,0.0,0.0025,0.0,0.0,0.0,0.0025,0.01,-0.05,-0.01,0.02,0.0,0.0,0.0,0.02,0.0,0.0,0.0,0.02,-2.0014199218749997,0.05745703125,9.619073125,0.04,0.0,0.0,0.0,0.04,0.0,0.0,0.0,0.04
1614383510.1880991,169,1614383510,187144041,base_imu_link,0.06937001214229287,0.07138547377315445,-0.6715624581253161,0.7342314215465334,0.0025,0.0,0.0,0.0,0.0025,0.0,0.0,0.0,0.0025,0.01,-0.05,-0.01,0.02,0.0,0.0,0.0,0.02,0.0,0.0,0.0,0.02,-1.996823359375,0.047880859374999994,9.62903234375,0.04,0.0,0.0,0.0,0.04,0.0,0.0,0.0,0.04
1614383510.2080607,170,1614383510,206911087,base_imu_link,0.06939492614663281,0.07136125472231382,-0.671818712321739,0.7339969572988166,0.0025,0.0,0.0,0.0,0.0025,0.0,0.0,0.0,0.0025,0.01,-0.05,-0.01,0.02,0.0,0.0,0.0,0.02,0.0,0.0,0.0,0.02,-2.0014199218749997,0.047880859374999994,9.63362890625,0.04,0.0,0.0,0.0,0.04,0.0,0.0,0.0,0.04
1614383510.2279608,171,1614383510,227050065,base_imu_link,0.0693824702012183,0.07137336533481264,-0.6716905954539604,0.7341142006038737,0.0025,0.0,0.0,0.0,0.0025,0.0,0.0,0.0,0.0025,0.01,-0.05,-0.01,0.02,0.0,0.0,0.0,0.02,0.0,0.0,0.0,0.02,-2.0014199218749997,0.05745703125,9.63362890625,0.04,0.0,0.0,0.0,0.04,0.0,0.0,0.0,0.04
1614383510.2479172,172,1614383510,247126102,base_imu_link,0.06938869843813814,0.07136731030030981,-0.6717546564457018,0.7340555817464216,0.0025,0.0,0.0,0.0,0.0025,0.0,0.0,0.0,0.0025,0.01,-0.05,-0.01,0.02,0.0,0.0,0.0,0.02,0.0,0.0,0.0,0.02,-2.0109960937499998,0.047880859374999994,9.638225468749999,0.04,0.0,0.0,0.0,0.04,0.0,0.0,0.0,0.04
1614383510.2681274,173,1614383510,267297983,base_imu_link,0.06943850530620785,0.07131885046240807,-0.6722669601733084,0.7335864296788073,0.0025,0.0,0.0,0.0,0.0025,0.0,0.0,0.0,0.0025,0.01,-0.05,-0.01,0.02,0.0,0.0,0.0,0.02,0.0,0.0,0.0,0.02,-1.99184375,0.05286046874999999,9.62903234375,0.04,0.0,0.0,0.0,0.04,0.0,0.0,0.0,0.04
1614383510.2883837,174,1614383510,287065029,base_imu_link,0.06941360610109167,0.07134308472782819,-0.672010849250747,0.733821050419549,0.0025,0.0,0.0,0.0,0.0025,0.0,0.0,0.0,0.0025,0.01,-0.05,-0.01,0.02,0.0,0.0,0.0,0.02,0.0,0.0,0.0,0.02,-2.0014199218749997,0.05745703125,9.63362890625,0.04,0.0,0.0,0.0,0.04,0.0,0.0,0.0,0.04
1614383510.3084424,175,1614383510,307651042,base_imu_link,0.06950874089396689,0.07125411832076918,-0.6723371957610675,0.7335216975371682,0.0025,0.0,0.0,0.0,0.0025,0.0,0.0,0.0,0.0025,0.01,-0.05,-0.01,0.02,0.0,0.0,0.0,0.02,0.0,0.0,0.0,0.02,-1.996823359375,0.047880859374999994,9.638225468749999,0.04,0.0,0.0,0.0,0.04,0.0,0.0,0.0,0.04
1614383510.3279393,176,1614383510,327130079,base_imu_link,0.06950874089396689,0.07125411832076918,-0.6723371957610675,0.7335216975371682,0.0025,0.0,0.0,0.0,0.0025,0.0,0.0,0.0,0.0025,0.01,-0.05,-0.01,0.02,0.0,0.0,0.0,0.02,0.0,0.0,0.0,0.02,-1.996823359375,0.047880859374999994,9.63362890625,0.04,0.0,0.0,0.0,0.04,0.0,0.0,0.0,0.04
1614383510.347964,177,1614383510,347224950,base_imu_link,0.0694296061164145,0.07120634322402611,-0.6727846067596152,0.7331234953174611,0.0025,0.0,0.0,0.0,0.0025,0.0,0.0,0.0,0.0025,0.01,-0.05,-0.01,0.02,0.0,0.0,0.0,0.02,0.0,0.0,0.0,0.02,-1.996823359375,0.05745703125,9.62903234375,0.04,0.0,0.0,0.0,0.04,0.0,0.0,0.0,0.04
1614383510.3681974,178,1614383510,367386102,base_imu_link,0.06937623807811089,0.07101960352498884,-0.6728021326072355,0.7331305776356887,0.0025,0.0,0.0,0.0,0.0025,0.0,0.0,0.0,0.0025,0.01,-0.07,-0.01,0.02,0.0,0.0,0.0,0.02,0.0,0.0,0.0,0.02,-2.0351280468749997,0.12946984374999998,9.8443046875,0.04,0.0,0.0,0.0,0.04,0.0,0.0,0.0,0.04
1614383510.3894186,179,1614383510,388432025,base_imu_link,0.06850831106905597,0.07004736973317778,-0.6730143001981993,0.7331109936678463,0.0025,0.0,0.0,0.0,0.0025,0.0,0.0,0.0,0.0025,-0.02,-0.18,-0.04,0.02,0.0,0.0,0.0,0.02,0.0,0.0,0.0,0.02,-1.8340284375,0.5125167187499999,10.76821375,0.04,0.0,0.0,0.0,0.04,0.0,0.0,0.0,0.04
1614383510.4089305,180,1614383510,407989978,base_imu_link,0.0662514418655073,0.06574994768920296,-0.6735807772797463,0.7331961724592001,0.0025,0.0,0.0,0.0,0.0025,0.0,0.0,0.0,0.0025,-0.05,-0.38,-0.05,0.02,0.0,0.0,0.0,0.02,0.0,0.0,0.0,0.02,1.671233515625,-0.35431835937499995,9.987947265625,0.04,0.0,0.0,0.0,0.04,0.0,0.0,0.0,0.04
1614383510.4287353,181,1614383510,427831888,base_imu_link,0.0546153670523391,0.05601418017077347,-0.6743605522837968,0.7342461568336787,0.0025,0.0,0.0,0.0,0.0025,0.0,0.0,0.0,0.0025,0.02,0.17,-0.0,0.02,0.0,0.0,0.0,0.02,0.0,0.0,0.0,0.02,-0.0,-0.59372265625,9.193124999999998,0.04,0.0,0.0,0.0,0.04,0.0,0.0,0.0,0.04
1614383510.4484677,182,1614383510,447557926,base_imu_link,0.047086486023597524,0.05276763328218394,-0.6749984483175719,0.7344219049569645,0.0025,0.0,0.0,0.0,0.0025,0.0,0.0,0.0,0.0025,-0.04,-0.11,-0.02,0.02,0.0,0.0,0.0,0.02,0.0,0.0,0.0,0.02,-3.2750507812499996,0.1149140625,10.902280156249999,0.04,0.0,0.0,0.0,0.04,0.0,0.0,0.0,0.04
1614383510.4663458,183,1614383510,465461015,base_imu_link,0.04782604534487804,0.05326930374097077,-0.6743927410464408,0.7348941974798076,0.0025,0.0,0.0,0.0,0.0025,0.0,0.0,0.0,0.0025,-0.02,-0.54,0.0,0.02,0.0,0.0,0.0,0.02,0.0,0.0,0.0,0.02,4.3812901562499995,-0.368874140625,9.863457031249999,0.04,0.0,0.0,0.0,0.04,0.0,0.0,0.0,0.04
1614383510.4895632,184,1614383510,488341093,base_imu_link,0.034138410116229104,0.03982185457436866,-0.6747212640112173,0.7362064959942279,0.0025,0.0,0.0,0.0,0.0025,0.0,0.0,0.0,0.0025,0.05,0.45,-0.0,0.02,0.0,0.0,0.0,0.02,0.0,0.0,0.0,0.02,-1.106239375,-0.71323328125,9.982967656249999,0.04,0.0,0.0,0.0,0.04,0.0,0.0,0.0,0.04
1614383510.5089107,185,1614383510,508006095,base_imu_link,0.03276672778450351,0.04225613166427915,-0.6740022595285925,0.7367915003835342,0.0025,0.0,0.0,0.0,0.0025,0.0,0.0,0.0,0.0025,0.08,0.04,0.02,0.02,0.0,0.0,0.0,0.02,0.0,0.0,0.0,0.02,-2.595142578125,0.7086367187499999,9.020753906249999,0.04,0.0,0.0,0.0,0.04,0.0,0.0,0.0,0.04
1614383510.529854,186,1614383510,528161048,base_imu_link,0.04093154881522655,0.04564841652904024,-0.6726240492001518,0.7374399764167726,0.0025,0.0,0.0,0.0,0.0025,0.0,0.0,0.0,0.0025,0.0,0.01,-0.01,0.02,0.0,0.0,0.0,0.02,0.0,0.0,0.0,0.02,-1.2065976562499998,0.545841796875,9.375072265624999,0.04,0.0,0.0,0.0,0.04,0.0,0.0,0.0,0.04
1614383510.5486176,187,1614383510,547687053,base_imu_link,0.040457294043686365,0.04242890387799524,-0.6715932595697587,0.7385969734400767,0.0025,0.0,0.0,0.0,0.0025,0.0,0.0,0.0,0.0025,-0.07,-0.31,-0.02,0.02,0.0,0.0,0.0,0.02,0.0,0.0,0.0,0.02,-2.24082421875,0.181947265625,9.66733703125,0.04,0.0,0.0,0.0,0.04,0.0,0.0,0.0,0.04
1614383510.569213,188,1614383510,568191051,base_imu_link,0.04400872370211862,0.0462644684137717,-0.670935900193956,0.738761022950878,0.0025,0.0,0.0,0.0,0.0025,0.0,0.0,0.0,0.0025,-0.07,-0.06,-0.04,0.02,0.0,0.0,0.0,0.02,0.0,0.0,0.0,0.02,1.446001953125,-0.258556640625,9.614476562499998,0.04,0.0,0.0,0.0,0.04,0.0,0.0,0.0,0.04
1614383510.588307,189,1614383510,587428092,base_imu_link,0.033755548635375436,0.036157009147185046,-0.6712466608863412,0.7395817425239705,0.0025,0.0,0.0,0.0,0.0025,0.0,0.0,0.0,0.0025,0.08,-0.09,-0.05,0.02,0.0,0.0,0.0,0.02,0.0,0.0,0.0,0.02,-3.1888652343749997,0.368874140625,9.930490234374998,0.04,0.0,0.0,0.0,0.04,0.0,0.0,0.0,0.04
1614383510.608787,190,1614383510,607974052,base_imu_link,0.04007891011680152,0.04018736738554506,-0.6706868666918336,0.7395659425051693,0.0025,0.0,0.0,0.0,0.0025,0.0,0.0,0.0,0.0025,0.04,-0.29,-0.03,0.02,0.0,0.0,0.0,0.02,0.0,0.0,0.0,0.02,2.690904296875,0.20607921875,8.77637,0.04,0.0,0.0,0.0,0.04,0.0,0.0,0.0,0.04
1614383510.6295774,191,1614383510,628508090,base_imu_link,0.032895319661284374,0.030117968113607806,-0.6704147086068225,0.7406449381618151,0.0025,0.0,0.0,0.0,0.0025,0.0,0.0,0.0,0.0025,0.09,0.42,-0.01,0.02,0.0,0.0,0.0,0.02,0.0,0.0,0.0,0.02,-4.165634765625,-0.8093780468749999,10.792345703125,0.04,0.0,0.0,0.0,0.04,0.0,0.0,0.0,0.04
1614383510.6486146,192,1614383510,647941112,base_imu_link,0.03520605268864849,0.03661013625810444,-0.6697497671128329,0.7408478124618804,0.0025,0.0,0.0,0.0,0.0025,0.0,0.0,0.0,0.0025,0.04,-0.44,0.01,0.02,0.0,0.0,0.0,0.02,0.0,0.0,0.0,0.02,-2.4469034375,0.14862218749999997,9.0782109375,0.04,0.0,0.0,0.0,0.04,0.0,0.0,0.0,0.04
1614383510.6694322,193,1614383510,668188095,base_imu_link,0.04059173195581837,0.04172814034643952,-0.6689312530489225,0.7410411947351195,0.0025,0.0,0.0,0.0,0.0025,0.0,0.0,0.0,0.0025,0.01,-0.0,-0.06,0.02,0.0,0.0,0.0,0.02,0.0,0.0,0.0,0.02,2.920732421875,-0.23480773437499997,9.03990625,0.04,0.0,0.0,0.0,0.04,0.0,0.0,0.0,0.04
1614383510.6893392,194,1614383510,688586950,base_imu_link,0.02813305098025428,0.027966375193482256,-0.6689272874599775,0.7422686153896825,0.0025,0.0,0.0,0.0,0.0025,0.0,0.0,0.0,0.0025,0.14,0.06,-0.01,0.02,0.0,0.0,0.0,0.02,0.0,0.0,0.0,0.02,-3.5814882812499995,-0.292264765625,9.585748046874999,0.04,0.0,0.0,0.0,0.04,0.0,0.0,0.0,0.04
1614383510.7094684,195,1614383510,708208084,base_imu_link,0.035628649811302836,0.03810977195351203,-0.6685155913921286,0.7418659910387504,0.0025,0.0,0.0,0.0,0.0025,0.0,0.0,0.0,0.0025,0.05,-0.1,-0.04,0.02,0.0,0.0,0.0,0.02,0.0,0.0,0.0,0.02,1.9822675781249999,-0.067033203125,8.220952031249999,0.04,0.0,0.0,0.0,0.04,0.0,0.0,0.0,0.04
1614383510.7296042,196,1614383510,728416919,base_imu_link,0.028990112368718467,0.031068410064059658,-0.6680325235087617,0.7429178116154279,0.0025,0.0,0.0,0.0,0.0025,0.0,0.0,0.0,0.0025,0.02,0.09,-0.05,0.02,0.0,0.0,0.0,0.02,0.0,0.0,0.0,0.02,-4.582389765624999,0.229828125,10.3085575,0.04,0.0,0.0,0.0,0.04,0.0,0.0,0.0,0.04
1614383510.7492175,197,1614383510,748450994,base_imu_link,0.036563143995909965,0.037742139762014286,-0.6670531619891155,0.7431545912309511,0.0025,0.0,0.0,0.0,0.0025,0.0,0.0,0.0,0.0025,0.05,-0.36,-0.01,0.02,0.0,0.0,0.0,0.02,0.0,0.0,0.0,0.02,1.8194726562499999,-0.42633117187499997,8.8820909375,0.04,0.0,0.0,0.0,0.04,0.0,0.0,0.0,0.04
1614383510.7705069,198,1614383510,769428014,base_imu_link,0.030649961884817438,0.0325096036029745,-0.666684094243227,0.7440000161244116,0.0025,0.0,0.0,0.0,0.0025,0.0,0.0,0.0,0.0025,0.12,0.41,-0.01,0.02,0.0,0.0,0.0,0.02,0.0,0.0,0.0,0.02,-3.8450245312499995,-0.6174715625,10.950161015625,0.04,0.0,0.0,0.0,0.04,0.0,0.0,0.0,0.04
1614383510.7893202,199,1614383510,788523912,base_imu_link,0.033861575371324226,0.03864317659268093,-0.6657619757267516,0.7443931019915562,0.0025,0.0,0.0,0.0,0.0025,0.0,0.0,0.0,0.0025,0.06,-0.28,-0.01,0.02,0.0,0.0,0.0,0.02,0.0,0.0,0.0,0.02,-2.42775109375,0.430927734375,8.819654296875,0.04,0.0,0.0,0.0,0.04,0.0,0.0,0.0,0.04
1614383510.8098629,200,1614383510,808942079,base_imu_link,0.03846204668886492,0.041661237023114604,-0.6647860035041477,0.7448789041442848,0.0025,0.0,0.0,0.0,0.0025,0.0,0.0,0.0,0.0025,-0.05,-0.17,-0.07,0.02,0.0,0.0,0.0,0.02,0.0,0.0,0.0,0.02,0.49336437499999997,0.502940546875,9.322594843749998,0.04,0.0,0.0,0.0,0.04,0.0,0.0,0.0,0.04
1614383510.8300335,201,1614383510,829101085,base_imu_link,0.03699927155782106,0.03689405062536482,-0.6648958839947714,0.7451062651591751,0.0025,0.0,0.0,0.0,0.0025,0.0,0.0,0.0,0.0025,-0.01,0.26,-0.07,0.02,0.0,0.0,0.0,0.02,0.0,0.0,0.0,0.02,-2.10216125,-0.1149140625,10.236927734375,0.04,0.0,0.0,0.0,0.04,0.0,0.0,0.0,0.04
1614383510.8496048,202,1614383510,848660945,base_imu_link,0.03806117840511687,0.03968467213091009,-0.6645013984161782,0.7452612729769472,0.0025,0.0,0.0,0.0,0.0025,0.0,0.0,0.0,0.0025,-0.01,-0.21,-0.07,0.02,0.0,0.0,0.0,0.02,0.0,0.0,0.0,0.02,-5.415516718749999,0.71323328125,9.949642578125,0.04,0.0,0.0,0.0,0.04,0.0,0.0,0.0,0.04
1614383510.8698473,203,1614383510,868815898,base_imu_link,0.04715980869509856,0.04732900074643428,-0.6637357406048456,0.744977036408454,0.0025,0.0,0.0,0.0,0.0025,0.0,0.0,0.0,0.0025,-0.05,-0.38,-0.08,0.02,0.0,0.0,0.0,0.02,0.0,0.0,0.0,0.02,1.518014765625,0.35929796875,9.59072765625,0.04,0.0,0.0,0.0,0.04,0.0,0.0,0.0,0.04
1614383510.8893769,204,1614383510,888539075,base_imu_link,0.040167282464862106,0.03676342191337122,-0.6638836880077631,0.7458508490481314,0.0025,0.0,0.0,0.0,0.0025,0.0,0.0,0.0,0.0025,0.04,0.16,-0.03,0.02,0.0,0.0,0.0,0.02,0.0,0.0,0.0,0.02,-0.507537109375,-0.340145625,8.77637,0.04,0.0,0.0,0.0,0.04,0.0,0.0,0.0,0.04
1614383510.9094667,205,1614383510,908669948,base_imu_link,0.037863471817747754,0.03706442953460529,-0.6637897589440844,0.7460400401360072,0.0025,0.0,0.0,0.0,0.0025,0.0,0.0,0.0,0.0025,-0.0,0.03,-0.05,0.02,0.0,0.0,0.0,0.02,0.0,0.0,0.0,0.02,-4.907596562499999,0.22523156249999998,10.3085575,0.04,0.0,0.0,0.0,0.04,0.0,0.0,0.0,0.04
1614383510.9301713,206,1614383510,929100036,base_imu_link,0.04428214873411192,0.04348869626542986,-0.6625185245787926,0.7464697108326386,0.0025,0.0,0.0,0.0,0.0025,0.0,0.0,0.0,0.0025,0.01,-0.45,0.01,0.02,0.0,0.0,0.0,0.02,0.0,0.0,0.0,0.02,1.139564453125,-0.0720128125,8.652262812499998,0.04,0.0,0.0,0.0,0.04,0.0,0.0,0.0,0.04
1614383510.9499717,207,1614383510,949212074,base_imu_link,0.039315273878211134,0.03869639228742258,-0.6625483377078372,0.7469850056489762,0.0025,0.0,0.0,0.0,0.0025,0.0,0.0,0.0,0.0025,0.01,0.19,-0.0,0.02,0.0,0.0,0.0,0.02,0.0,0.0,0.0,0.02,-3.8687734375,-0.560397578125,10.739485234375,0.04,0.0,0.0,0.0,0.04,0.0,0.0,0.0,0.04
1614383510.970322,208,1614383510,969212055,base_imu_link,0.04338937500165877,0.04591163637023029,-0.662238982025689,0.7466250829354397,0.0025,0.0,0.0,0.0,0.0025,0.0,0.0,0.0,0.0025,0.05,-0.14,-0.01,0.02,0.0,0.0,0.0,0.02,0.0,0.0,0.0,0.02,-0.55082140625,0.0720128125,9.604900390625,0.04,0.0,0.0,0.0,0.04,0.0,0.0,0.0,0.04
1614383510.989956,209,1614383510,988969087,base_imu_link,0.04030098356745146,0.04236581737491528,-0.6618388947520198,0.7473621917350891,0.0025,0.0,0.0,0.0,0.0025,0.0,0.0,0.0,0.0025,-0.0,-0.15,-0.0,0.02,0.0,0.0,0.0,0.02,0.0,0.0,0.0,0.02,-1.0533789062499999,-0.545841796875,8.79552234375,0.04,0.0,0.0,0.0,0.04,0.0,0.0,0.0,0.04
1614383511.010454,210,1614383511,9171009,base_imu_link,0.039918366997469104,0.04561340316471174,-0.6616467479097192,0.7473617078821212,0.0025,0.0,0.0,0.0,0.0025,0.0,0.0,0.0,0.0025,0.01,0.19,-0.03,0.02,0.0,0.0,0.0,0.02,0.0,0.0,0.0,0.02,-1.5992207031249999,-0.8668350781249999,10.796942265624999,0.04,0.0,0.0,0.0,0.04,0.0,0.0,0.0,0.04
1614383511.0298672,211,1614383511,28950929,base_imu_link,0.03823310777170146,0.04815318009912616,-0.6616704484062779,0.7472695085591904,0.0025,0.0,0.0,0.0,0.0025,0.0,0.0,0.0,0.0025,0.06,-0.05,-0.03,0.02,0.0,0.0,0.0,0.02,0.0,0.0,0.0,0.02,-4.2326679687499995,0.67033203125,9.705641718749998,0.04,0.0,0.0,0.0,0.04,0.0,0.0,0.0,0.04
1614383511.0495493,212,1614383511,48650979,base_imu_link,0.047697205693097544,0.05419361043478229,-0.6607511892685674,0.7471250866068462,0.0025,0.0,0.0,0.0,0.0025,0.0,0.0,0.0,0.0025,0.0,-0.26,-0.06,0.02,0.0,0.0,0.0,0.02,0.0,0.0,0.0,0.02,-0.330569453125,0.27311242187499996,9.269734374999999,0.04,0.0,0.0,0.0,0.04,0.0,0.0,0.0,0.04
1614383511.0700378,213,1614383511,69051027,base_imu_link,0.04686452397610313,0.05074626498917516,-0.661048852885989,0.7471565746751211,0.0025,0.0,0.0,0.0,0.0025,0.0,0.0,0.0,0.0025,0.05,0.13,-0.06,0.02,0.0,0.0,0.0,0.02,0.0,0.0,0.0,0.02,-0.722809453125,-0.7660937499999999,9.815576171875,0.04,0.0,0.0,0.0,0.04,0.0,0.0,0.0,0.04
1614383511.0904849,214,1614383511,89432954,base_imu_link,0.042352178256610654,0.050788417263053436,-0.6618525324776745,0.7467114937656466,0.0025,0.0,0.0,0.0,0.0025,0.0,0.0,0.0,0.0025,0.07,0.01,-0.07,0.02,0.0,0.0,0.0,0.02,0.0,0.0,0.0,0.02,-5.410537109374999,0.78524609375,10.337286015624999,0.04,0.0,0.0,0.0,0.04,0.0,0.0,0.0,0.04
1614383511.1100035,215,1614383511,109009981,base_imu_link,0.04934735085041103,0.05517369411424771,-0.6613428222878263,0.7464223830045603,0.0025,0.0,0.0,0.0,0.0025,0.0,0.0,0.0,0.0025,-0.02,-0.51,-0.05,0.02,0.0,0.0,0.0,0.02,0.0,0.0,0.0,0.02,1.388544921875,0.340145625,9.0445028125,0.04,0.0,0.0,0.0,0.04,0.0,0.0,0.0,0.04
1614383511.130188,216,1614383511,129187107,base_imu_link,0.044207488763141116,0.046351456965804526,-0.6618938802733372,0.7468558975003875,0.0025,0.0,0.0,0.0,0.0025,0.0,0.0,0.0,0.0025,0.05,0.2,-0.03,0.02,0.0,0.0,0.0,0.02,0.0,0.0,0.0,0.02,-0.9384648437499999,-1.062955078125,9.4995625,0.04,0.0,0.0,0.0,0.04,0.0,0.0,0.0,0.04
1614383511.150546,217,1614383511,149389028,base_imu_link,0.04118003511564656,0.05031705484693214,-0.6623941197905713,0.7463286332215048,0.0025,0.0,0.0,0.0,0.0025,0.0,0.0,0.0,0.0025,0.08,0.22,-0.04,0.02,0.0,0.0,0.0,0.02,0.0,0.0,0.0,0.02,-3.2225733593749997,-0.42135156249999994,9.944662968749999,0.04,0.0,0.0,0.0,0.04,0.0,0.0,0.0,0.04
1614383511.1702886,218,1614383511,169476032,base_imu_link,0.04454133666536918,0.05699462583825673,-0.6618768726094448,0.7461143930111253,0.0025,0.0,0.0,0.0,0.0025,0.0,0.0,0.0,0.0025,-0.02,-0.17,-0.05,0.02,0.0,0.0,0.0,0.02,0.0,0.0,0.0,0.02,-3.3612363281249995,0.8427031249999999,9.380051875,0.04,0.0,0.0,0.0,0.04,0.0,0.0,0.0,0.04
1614383511.1899855,219,1614383511,189142942,base_imu_link,0.05298275635941216,0.06020600177155617,-0.6609258433140809,0.7461535328059591,0.0025,0.0,0.0,0.0,0.0025,0.0,0.0,0.0,0.0025,-0.03,-0.2,-0.06,0.02,0.0,0.0,0.0,0.02,0.0,0.0,0.0,0.02,0.11989367187499998,0.11031749999999999,9.312635624999999,0.04,0.0,0.0,0.0,0.04,0.0,0.0,0.0,0.04
1614383511.2102172,220,1614383511,208972930,base_imu_link,0.04934957324715652,0.05528793471854566,-0.6614640009734075,0.7463063977423305,0.0025,0.0,0.0,0.0,0.0025,0.0,0.0,0.0,0.0025,0.01,0.12,-0.06,0.02,0.0,0.0,0.0,0.02,0.0,0.0,0.0,0.02,-2.0109960937499998,0.14862218749999997,10.102861328125,0.04,0.0,0.0,0.0,0.04,0.0,0.0,0.0,0.04
1614383511.229975,221,1614383511,228929996,base_imu_link,0.04987018396872128,0.05505879446740559,-0.6616797227366703,0.7460974724671334,0.0025,0.0,0.0,0.0,0.0025,0.0,0.0,0.0,0.0025,-0.01,-0.24,-0.03,0.02,0.0,0.0,0.0,0.02,0.0,0.0,0.0,0.02,-1.8769296874999999,0.0383046875,8.901243281249998,0.04,0.0,0.0,0.0,0.04,0.0,0.0,0.0,0.04
1614383511.2503424,222,1614383511,249377965,base_imu_link,0.05167559797142865,0.05776094327892806,-0.6614287986858258,0.7459927950555882,0.0025,0.0,0.0,0.0,0.0025,0.0,0.0,0.0,0.0025,-0.04,0.06,-0.06,0.02,0.0,0.0,0.0,0.02,0.0,0.0,0.0,0.02,-2.461076171875,-0.26353624999999997,11.304479375,0.04,0.0,0.0,0.0,0.04,0.0,0.0,0.0,0.04
1614383511.2702115,223,1614383511,269248008,base_imu_link,0.05185992296522108,0.05887653002311316,-0.6614086393908037,0.74591066109936,0.0025,0.0,0.0,0.0,0.0025,0.0,0.0,0.0,0.0025,0.04,-0.16,-0.02,0.02,0.0,0.0,0.0,0.02,0.0,0.0,0.0,0.02,-0.8235507812499999,0.05745703125,9.1977215625,0.04,0.0,0.0,0.0,0.04,0.0,0.0,0.0,0.04
1614383511.2903495,224,1614383511,289271116,base_imu_link,0.049941408416489405,0.055926138523653524,-0.6616163716024218,0.746084378326511,0.0025,0.0,0.0,0.0,0.0025,0.0,0.0,0.0,0.0025,0.04,-0.08,-0.01,0.02,0.0,0.0,0.0,0.02,0.0,0.0,0.0,0.02,-1.6375253906249998,-0.502940546875,9.20768078125,0.04,0.0,0.0,0.0,0.04,0.0,0.0,0.0,0.04
1614383511.3108637,225,1614383511,309539079,base_imu_link,0.04950720179318753,0.058755300488402204,-0.6619785339091585,0.7455744579038418,0.0025,0.0,0.0,0.0,0.0025,0.0,0.0,0.0,0.0025,0.03,0.05,-0.05,0.02,0.0,0.0,0.0,0.02,0.0,0.0,0.0,0.02,-2.054280390625,0.08120593749999999,10.643723515625,0.04,0.0,0.0,0.0,0.04,0.0,0.0,0.0,0.04
1614383511.33011,226,1614383511,328919887,base_imu_link,0.05035773143488795,0.05904746981278745,-0.6620279811556264,0.7454504996043971,0.0025,0.0,0.0,0.0,0.0025,0.0,0.0,0.0,0.0025,0.0,-0.11,-0.07,0.02,0.0,0.0,0.0,0.02,0.0,0.0,0.0,0.02,-0.340145625,0.04290125,8.82923046875,0.04,0.0,0.0,0.0,0.04,0.0,0.0,0.0,0.04
1614383511.350234,227,1614383511,349330902,base_imu_link,0.04767515386994362,0.055494587636158124,-0.6623404504712074,0.7456222623528402,0.0025,0.0,0.0,0.0,0.0025,0.0,0.0,0.0,0.0025,0.02,-0.03,-0.06,0.02,0.0,0.0,0.0,0.02,0.0,0.0,0.0,0.02,-3.4761503906249995,0.292264765625,9.518714843749999,0.04,0.0,0.0,0.0,0.04,0.0,0.0,0.0,0.04
1614383511.3705018,228,1614383511,369227886,base_imu_link,0.05476723822900188,0.0617625663209817,-0.6619800550271098,0.744961973368117,0.0025,0.0,0.0,0.0,0.0025,0.0,0.0,0.0,0.0025,-0.03,-0.08,-0.08,0.02,0.0,0.0,0.0,0.02,0.0,0.0,0.0,0.02,-0.330569453125,0.28268859375,10.16989453125,0.04,0.0,0.0,0.0,0.04,0.0,0.0,0.0,0.04
1614383511.3909862,229,1614383511,389619112,base_imu_link,0.051127253638545006,0.054987167133462446,-0.6628605898185238,0.7449686260853239,0.0025,0.0,0.0,0.0,0.0025,0.0,0.0,0.0,0.0025,0.05,-0.12,-0.06,0.02,0.0,0.0,0.0,0.02,0.0,0.0,0.0,0.02,-1.4843066406249998,-0.388026484375,8.94414453125,0.04,0.0,0.0,0.0,0.04,0.0,0.0,0.0,0.04
1614383511.411009,230,1614383511,410187959,base_imu_link,0.05036369201667998,0.0571809734507128,-0.663271500581526,0.7444895911414804,0.0025,0.0,0.0,0.0,0.0025,0.0,0.0,0.0,0.0025,-0.01,0.03,-0.06,0.02,0.0,0.0,0.0,0.02,0.0,0.0,0.0,0.02,-2.7196328124999996,-0.67033203125,10.399722656249999,0.04,0.0,0.0,0.0,0.04,0.0,0.0,0.0,0.04
1614383511.43064,231,1614383511,429512977,base_imu_link,0.05103029378006362,0.06183074451678753,-0.6630363457696806,0.7442819844236515,0.0025,0.0,0.0,0.0,0.0025,0.0,0.0,0.0,0.0025,0.02,-0.1,-0.05,0.02,0.0,0.0,0.0,0.02,0.0,0.0,0.0,0.02,-0.684504765625,0.35929796875,9.648184687499999,0.04,0.0,0.0,0.0,0.04,0.0,0.0,0.0,0.04
1614383511.4503837,232,1614383511,449619054,base_imu_link,0.05003269812026291,0.056426979804044805,-0.6632611817291295,0.7445786257208028,0.0025,0.0,0.0,0.0,0.0025,0.0,0.0,0.0,0.0025,0.09,-0.05,-0.04,0.02,0.0,0.0,0.0,0.02,0.0,0.0,0.0,0.02,-0.6799082031249999,-0.26353624999999997,8.599402343749999,0.04,0.0,0.0,0.0,0.04,0.0,0.0,0.0,0.04
1614383511.4711978,233,1614383511,470338106,base_imu_link,0.0493656640262435,0.05597277692058938,-0.6639353990848038,0.7440563589548498,0.0025,0.0,0.0,0.0,0.0025,0.0,0.0,0.0,0.0025,0.09,0.15,-0.06,0.02,0.0,0.0,0.0,0.02,0.0,0.0,0.0,0.02,-3.8113164062499996,-0.45008007812499995,10.361417968749999,0.04,0.0,0.0,0.0,0.04,0.0,0.0,0.0,0.04
1614383511.4910963,234,1614383511,489731073,base_imu_link,0.05303571040421404,0.06214302210220654,-0.6636738227942545,0.7435472514666339,0.0025,0.0,0.0,0.0,0.0025,0.0,0.0,0.0,0.0025,0.05,-0.18,-0.06,0.02,0.0,0.0,0.0,0.02,0.0,0.0,0.0,0.02,-0.9097363281249999,0.59372265625,9.145244140625,0.04,0.0,0.0,0.0,0.04,0.0,0.0,0.0,0.04
1614383511.5106068,235,1614383511,509464025,base_imu_link,0.053625371674040204,0.05800219049807091,-0.6638182573647899,0.7437105529703206,0.0025,0.0,0.0,0.0,0.0025,0.0,0.0,0.0,0.0025,0.05,-0.03,-0.07,0.02,0.0,0.0,0.0,0.02,0.0,0.0,0.0,0.02,-1.1924249218749998,0.13406640625,9.17397265625,0.04,0.0,0.0,0.0,0.04,0.0,0.0,0.0,0.04
1614383511.5305815,236,1614383511,529593944,base_imu_link,0.05342944645992684,0.05619400881891461,-0.6640830179065988,0.7436271061169769,0.0025,0.0,0.0,0.0,0.0025,0.0,0.0,0.0,0.0025,0.07,-0.05,-0.08,0.02,0.0,0.0,0.0,0.02,0.0,0.0,0.0,0.02,-2.3702940624999997,-0.14862218749999997,9.619073125,0.04,0.0,0.0,0.0,0.04,0.0,0.0,0.0,0.04
1614383511.5502532,237,1614383511,549495935,base_imu_link,0.055769544914580055,0.060167339082816455,-0.6643115634975136,0.7429399678111299,0.0025,0.0,0.0,0.0,0.0025,0.0,0.0,0.0,0.0025,0.02,-0.0,-0.1,0.02,0.0,0.0,0.0,0.02,0.0,0.0,0.0,0.02,-2.2553799999999997,0.258556640625,10.385166875,0.04,0.0,0.0,0.0,0.04,0.0,0.0,0.0,0.04
1614383511.571095,238,1614383511,570112943,base_imu_link,0.05737546694661042,0.06118125398005863,-0.6642444106121139,0.7427949063669267,0.0025,0.0,0.0,0.0,0.0025,0.0,0.0,0.0,0.0025,-0.02,-0.07,-0.09,0.02,0.0,0.0,0.0,0.02,0.0,0.0,0.0,0.02,-1.3789687499999999,0.5412452343749999,9.509138671874998,0.04,0.0,0.0,0.0,0.04,0.0,0.0,0.0,0.04
1614383511.591359,239,1614383511,589792966,base_imu_link,0.057668382934106956,0.058235231589007265,-0.6645457073720817,0.7427395359241888,0.0025,0.0,0.0,0.0,0.0025,0.0,0.0,0.0,0.0025,-0.02,-0.11,-0.08,0.02,0.0,0.0,0.0,0.02,0.0,0.0,0.0,0.02,-2.341565546875,0.18654382812499998,9.265137812499999,0.04,0.0,0.0,0.0,0.04,0.0,0.0,0.0,0.04
1614383511.6107848,240,1614383511,610073089,base_imu_link,0.06030149219782531,0.06077960081767271,-0.6644334195103221,0.7424269669139048,0.0025,0.0,0.0,0.0,0.0025,0.0,0.0,0.0,0.0025,-0.02,-0.05,-0.06,0.02,0.0,0.0,0.0,0.02,0.0,0.0,0.0,0.02,-2.0638565625,0.01915234375,9.528291015625,0.04,0.0,0.0,0.0,0.04,0.0,0.0,0.0,0.04
1614383511.630893,241,1614383511,630029916,base_imu_link,0.06111628470621498,0.06226389485110469,-0.6647697098603419,0.7419361428006298,0.0025,0.0,0.0,0.0,0.0025,0.0,0.0,0.0,0.0025,0.01,-0.07,-0.05,0.02,0.0,0.0,0.0,0.02,0.0,0.0,0.0,0.02,-2.025551875,0.05286046874999999,9.97377453125,0.04,0.0,0.0,0.0,0.04,0.0,0.0,0.0,0.04
1614383511.6507788,242,1614383511,650085926,base_imu_link,0.06129052672190042,0.0629226870567081,-0.6650376175908677,0.7416260337776571,0.0025,0.0,0.0,0.0,0.0025,0.0,0.0,0.0,0.0025,-0.0,-0.09,-0.07,0.02,0.0,0.0,0.0,0.02,0.0,0.0,0.0,0.02,-0.51711328125,0.05745703125,9.437508906249999,0.04,0.0,0.0,0.0,0.04,0.0,0.0,0.0,0.04
1614383511.6712782,243,1614383511,670558929,base_imu_link,0.05710384557797924,0.05861759521935348,-0.6654760427278166,0.7419196485511295,0.0025,0.0,0.0,0.0,0.0025,0.0,0.0,0.0,0.0025,-0.0,-0.07,-0.05,0.02,0.0,0.0,0.0,0.02,0.0,0.0,0.0,0.02,-2.399022578125,-0.483788203125,9.3846484375,0.04,0.0,0.0,0.0,0.04,0.0,0.0,0.0,0.04
1614383511.6912467,244,1614383511,690376043,base_imu_link,0.058211715962790414,0.06381398208282765,-0.6655108842195411,0.7413733437349392,0.0025,0.0,0.0,0.0,0.0025,0.0,0.0,0.0,0.0025,0.03,0.01,-0.05,0.02,0.0,0.0,0.0,0.02,0.0,0.0,0.0,0.02,-2.2025195312499997,-0.42135156249999994,10.313537109375,0.04,0.0,0.0,0.0,0.04,0.0,0.0,0.0,0.04
1614383511.7113485,245,1614383511,710606098,base_imu_link,0.05748041442967984,0.06552255652095394,-0.6658051521557178,0.7410170685664752,0.0025,0.0,0.0,0.0,0.0025,0.0,0.0,0.0,0.0025,0.04,-0.12,-0.06,0.02,0.0,0.0,0.0,0.02,0.0,0.0,0.0,0.02,-0.56997375,-0.18654382812499998,9.16937609375,0.04,0.0,0.0,0.0,0.04,0.0,0.0,0.0,0.04
1614383511.7314463,246,1614383511,730609893,base_imu_link,0.054291008324875246,0.06231050891263029,-0.6663732759197144,0.7410239834405804,0.0025,0.0,0.0,0.0,0.0025,0.0,0.0,0.0,0.0025,0.07,-0.01,-0.07,0.02,0.0,0.0,0.0,0.02,0.0,0.0,0.0,0.02,-1.99184375,-0.612875,9.25058203125,0.04,0.0,0.0,0.0,0.04,0.0,0.0,0.0,0.04
1614383511.75127,247,1614383511,750318050,base_imu_link,0.05446207003877703,0.06625523932909211,-0.6668672727487246,0.740224402951709,0.0025,0.0,0.0,0.0,0.0025,0.0,0.0,0.0,0.0025,0.05,0.07,-0.09,0.02,0.0,0.0,0.0,0.02,0.0,0.0,0.0,0.02,-2.70507703125,0.19650304687499998,10.198623046875,0.04,0.0,0.0,0.0,0.04,0.0,0.0,0.0,0.04
1614383511.772224,248,1614383511,771186113,base_imu_link,0.057182287434531874,0.06766720661275431,-0.6670204416695621,0.7397533815724829,0.0025,0.0,0.0,0.0,0.0025,0.0,0.0,0.0,0.0025,-0.01,-0.15,-0.09,0.02,0.0,0.0,0.0,0.02,0.0,0.0,0.0,0.02,-1.1682929687499999,0.6082784375,9.442105468749999,0.04,0.0,0.0,0.0,0.04,0.0,0.0,0.0,0.04
1614383511.791239,249,1614383511,790330886,base_imu_link,0.05814088623369406,0.06329050062336969,-0.66735089158179,0.7397680294415229,0.0025,0.0,0.0,0.0,0.0025,0.0,0.0,0.0,0.0025,0.06,-0.03,-0.09,0.02,0.0,0.0,0.0,0.02,0.0,0.0,0.0,0.02,-1.565895625,-0.30184093749999996,9.45666125,0.04,0.0,0.0,0.0,0.04,0.0,0.0,0.0,0.04
1614383511.8113635,250,1614383511,810488939,base_imu_link,0.056549889609628264,0.06414126921268432,-0.6679046059672266,0.7393182297878829,0.0025,0.0,0.0,0.0,0.0025,0.0,0.0,0.0,0.0025,-0.01,-0.03,-0.09,0.02,0.0,0.0,0.0,0.02,0.0,0.0,0.0,0.02,-2.91115625,0.32099328125,9.298462890624998,0.04,0.0,0.0,0.0,0.04,0.0,0.0,0.0,0.04
1614383511.8314416,251,1614383511,830677032,base_imu_link,0.06178344694217607,0.06796433832969284,-0.6677394341243374,0.738706777087269,0.0025,0.0,0.0,0.0,0.0025,0.0,0.0,0.0,0.0025,-0.03,-0.05,-0.07,0.02,0.0,0.0,0.0,0.02,0.0,0.0,0.0,0.02,-1.062955078125,0.2681328125,9.494965937499998,0.04,0.0,0.0,0.0,0.04,0.0,0.0,0.0,0.04
1614383511.8511107,252,1614383511,850267887,base_imu_link,0.060482940526359955,0.06468757190543349,-0.6681478480186084,0.7387393215027658,0.0025,0.0,0.0,0.0,0.0025,0.0,0.0,0.0,0.0025,0.0,-0.01,-0.06,0.02,0.0,0.0,0.0,0.02,0.0,0.0,0.0,0.02,-1.6566777343749999,0.24898046875,9.66733703125,0.04,0.0,0.0,0.0,0.04,0.0,0.0,0.0,0.04
1614383511.8718216,253,1614383511,870759963,base_imu_link,0.06066948815268494,0.06311321323162883,-0.668092686982966,0.7389100737726823,0.0025,0.0,0.0,0.0,0.0025,0.0,0.0,0.0,0.0025,0.02,-0.09,-0.05,0.02,0.0,0.0,0.0,0.02,0.0,0.0,0.0,0.02,-2.465672734375,-0.22523156249999998,9.916317499999998,0.04,0.0,0.0,0.0,0.04,0.0,0.0,0.0,0.04
1614383511.8929675,254,1614383511,890774965,base_imu_link,0.06158418853120267,0.06603542128910357,-0.6680393336616598,0.7386272128340585,0.0025,0.0,0.0,0.0,0.0025,0.0,0.0,0.0,0.0025,0.01,-0.08,-0.05,0.02,0.0,0.0,0.0,0.02,0.0,0.0,0.0,0.02,-2.4227714843749997,-0.28268859375,9.916317499999998,0.04,0.0,0.0,0.0,0.04,0.0,0.0,0.0,0.04
1614383511.911635,255,1614383511,910439014,base_imu_link,0.0625524821504601,0.06914324771811606,-0.6679571947251756,0.7383356853672193,0.0025,0.0,0.0,0.0,0.0025,0.0,0.0,0.0,0.0025,0.03,-0.02,-0.04,0.02,0.0,0.0,0.0,0.02,0.0,0.0,0.0,0.02,-1.786147578125,0.30184093749999996,9.547443359374999,0.04,0.0,0.0,0.0,0.04,0.0,0.0,0.0,0.04
1614383511.9316478,256,1614383511,930594921,base_imu_link,0.0632753061758469,0.06743600977257753,-0.6676736509700194,0.7386883754430351,0.0025,0.0,0.0,0.0,0.0025,0.0,0.0,0.0,0.0025,0.02,-0.09,-0.05,0.02,0.0,0.0,0.0,0.02,0.0,0.0,0.0,0.02,-1.48928625,0.24438390624999998,9.40839734375,0.04,0.0,0.0,0.0,0.04,0.0,0.0,0.0,0.04
1614383511.9518266,257,1614383511,950745105,base_imu_link,0.06271963721867228,0.06547711796990748,-0.6680990100857607,0.7385273907255842,0.0025,0.0,0.0,0.0,0.0025,0.0,0.0,0.0,0.0025,0.0,-0.07,-0.06,0.02,0.0,0.0,0.0,0.02,0.0,0.0,0.0,0.02,-2.2120957031249997,-0.023748906249999997,9.48500671875,0.04,0.0,0.0,0.0,0.04,0.0,0.0,0.0,0.04
1614383511.972081,258,1614383511,971095085,base_imu_link,0.06362018858364163,0.06747407221229197,-0.6681206277069913,0.7382510061057067,0.0025,0.0,0.0,0.0,0.0025,0.0,0.0,0.0,0.0025,-0.01,-0.05,-0.07,0.02,0.0,0.0,0.0,0.02,0.0,0.0,0.0,0.02,-2.5376855468749997,0.19152343749999998,9.815576171875,0.04,0.0,0.0,0.0,0.04,0.0,0.0,0.0,0.04
1614383511.9920547,259,1614383511,991111993,base_imu_link,0.06627920487096806,0.06963732067602849,-0.6679464368960224,0.737973758346897,0.0025,0.0,0.0,0.0,0.0025,0.0,0.0,0.0,0.0025,-0.01,-0.02,-0.09,0.02,0.0,0.0,0.0,0.02,0.0,0.0,0.0,0.02,-0.9721729687499999,-0.27311242187499996,10.007099609374999,0.04,0.0,0.0,0.0,0.04,0.0,0.0,0.0,0.04
1614383512.0120552,260,1614383512,11301040,base_imu_link,0.061231069865634924,0.06682282789657587,-0.6686047554525725,0.738073943952244,0.0025,0.0,0.0,0.0,0.0025,0.0,0.0,0.0,0.0025,-0.01,-0.1,-0.07,0.02,0.0,0.0,0.0,0.02,0.0,0.0,0.0,0.02,-2.2170753125,-0.4979609375,9.183548828125,0.04,0.0,0.0,0.0,0.04,0.0,0.0,0.0,0.04
1614383512.0324476,261,1614383512,31349897,base_imu_link,0.06146690297527377,0.0707147709903324,-0.6688838140114037,0.7374385970072159,0.0025,0.0,0.0,0.0,0.0025,0.0,0.0,0.0,0.0025,0.01,0.02,-0.06,0.02,0.0,0.0,0.0,0.02,0.0,0.0,0.0,0.02,-2.5664140625,-0.139046015625,9.944662968749999,0.04,0.0,0.0,0.0,0.04,0.0,0.0,0.0,0.04
1614383512.0522459,262,1614383512,51182031,base_imu_link,0.06314065787172637,0.07271712318773463,-0.6692147121723458,0.7368019722631785,0.0025,0.0,0.0,0.0,0.0025,0.0,0.0,0.0,0.0025,0.05,-0.07,-0.06,0.02,0.0,0.0,0.0,0.02,0.0,0.0,0.0,0.02,-1.2020010937499999,0.023748906249999997,9.940066406249999,0.04,0.0,0.0,0.0,0.04,0.0,0.0,0.0,0.04
1614383512.072203,263,1614383512,71505069,base_imu_link,0.061512270947031746,0.06915041066473752,-0.6700522748402575,0.7365218328123295,0.0025,0.0,0.0,0.0,0.0025,0.0,0.0,0.0,0.0025,0.09,-0.04,-0.06,0.02,0.0,0.0,0.0,0.02,0.0,0.0,0.0,0.02,-1.560916015625,-0.39760265625,9.2743309375,0.04,0.0,0.0,0.0,0.04,0.0,0.0,0.0,0.04
1614383512.0924602,264,1614383512,91145992,base_imu_link,0.059935224121005555,0.06941196806697394,-0.670396362295536,0.7363141075787878,0.0025,0.0,0.0,0.0,0.0025,0.0,0.0,0.0,0.0025,0.06,-0.02,-0.04,0.02,0.0,0.0,0.0,0.02,0.0,0.0,0.0,0.02,-2.55185828125,-0.30184093749999996,9.5378671875,0.04,0.0,0.0,0.0,0.04,0.0,0.0,0.0,0.04
1614383512.1124706,265,1614383512,111511945,base_imu_link,0.06233664085354705,0.07345313320495787,-0.6700893702697,0.7360020491011064,0.0025,0.0,0.0,0.0,0.0025,0.0,0.0,0.0,0.0025,0.05,0.04,-0.04,0.02,0.0,0.0,0.0,0.02,0.0,0.0,0.0,0.02,-2.188346796875,0.39760265625,9.930490234374998,0.04,0.0,0.0,0.0,0.04,0.0,0.0,0.0,0.04
1614383512.1320498,266,1614383512,131377935,base_imu_link,0.06427792691108491,0.07180207683765542,-0.669824044005771,0.7362394718741775,0.0025,0.0,0.0,0.0,0.0025,0.0,0.0,0.0,0.0025,0.05,-0.14,-0.03,0.02,0.0,0.0,0.0,0.02,0.0,0.0,0.0,0.02,-1.6425049999999999,0.5841464843749999,9.437508906249999,0.04,0.0,0.0,0.0,0.04,0.0,0.0,0.0,0.04
1614383512.1519127,267,1614383512,151068925,base_imu_link,0.06619212818408979,0.0684172720995873,-0.6698435892333794,0.7363743918740356,0.0025,0.0,0.0,0.0,0.0025,0.0,0.0,0.0,0.0025,0.08,-0.05,-0.06,0.02,0.0,0.0,0.0,0.02,0.0,0.0,0.0,0.02,-1.8482011718749998,-0.09576171874999999,9.576171875,0.04,0.0,0.0,0.0,0.04,0.0,0.0,0.0,0.04
1614383512.1719396,268,1614383512,171025991,base_imu_link,0.06573210759586541,0.06883328979158798,-0.6703738383405431,0.7358941398842908,0.0025,0.0,0.0,0.0,0.0025,0.0,0.0,0.0,0.0025,0.03,-0.03,-0.07,0.02,0.0,0.0,0.0,0.02,0.0,0.0,0.0,0.02,-2.714653203125,0.08618554687499999,9.8443046875,0.04,0.0,0.0,0.0,0.04,0.0,0.0,0.0,0.04
1614383512.1929734,269,1614383512,192230939,base_imu_link,0.06795472137470791,0.07150773835393481,-0.6702678779914624,0.7355336640366732,0.0025,0.0,0.0,0.0,0.0025,0.0,0.0,0.0,0.0025,-0.02,-0.06,-0.08,0.02,0.0,0.0,0.0,0.02,0.0,0.0,0.0,0.02,-2.0447042187499997,0.48838476562499994,9.839708125,0.04,0.0,0.0,0.0,0.04,0.0,0.0,0.0,0.04
1614383512.2117887,270,1614383512,210947990,base_imu_link,0.06930716287642164,0.06980651878865178,-0.6702517793008389,0.7355855622921718,0.0025,0.0,0.0,0.0,0.0025,0.0,0.0,0.0,0.0025,0.01,-0.09,-0.07,0.02,0.0,0.0,0.0,0.02,0.0,0.0,0.0,0.02,-1.39352453125,0.05745703125,9.312635624999999,0.04,0.0,0.0,0.0,0.04,0.0,0.0,0.0,0.04
1614383512.2323885,271,1614383512,231273889,base_imu_link,0.06740230505174427,0.06777962884457411,-0.6707402080531273,0.7355069166828079,0.0025,0.0,0.0,0.0,0.0025,0.0,0.0,0.0,0.0025,0.02,-0.09,-0.06,0.02,0.0,0.0,0.0,0.02,0.0,0.0,0.0,0.02,-2.599739140625,-0.124490234375,9.336767578124999,0.04,0.0,0.0,0.0,0.04,0.0,0.0,0.0,0.04
1614383512.252103,272,1614383512,251235008,base_imu_link,0.06910785464784427,0.071394305456537,-0.6707341384023295,0.7350120224568003,0.0025,0.0,0.0,0.0,0.0025,0.0,0.0,0.0,0.0025,0.0,-0.04,-0.07,0.02,0.0,0.0,0.0,0.02,0.0,0.0,0.0,0.02,-1.99184375,-0.124490234375,9.925510625,0.04,0.0,0.0,0.0,0.04,0.0,0.0,0.0,0.04
1614383512.2723925,273,1614383512,271536111,base_imu_link,0.0681549556143497,0.0719091637122253,-0.6712470048657483,0.7345824886683433,0.0025,0.0,0.0,0.0,0.0025,0.0,0.0,0.0,0.0025,-0.0,-0.05,-0.07,0.02,0.0,0.0,0.0,0.02,0.0,0.0,0.0,0.02,-1.3119355468749998,0.20607921875,9.8872059375,0.04,0.0,0.0,0.0,0.04,0.0,0.0,0.0,0.04
1614383512.2921653,274,1614383512,291323900,base_imu_link,0.06599101653424276,0.06823871188496874,-0.6716392560395685,0.7347716473052514,0.0025,0.0,0.0,0.0,0.0025,0.0,0.0,0.0,0.0025,0.02,-0.11,-0.06,0.02,0.0,0.0,0.0,0.02,0.0,0.0,0.0,0.02,-1.9631152343749998,0.0,9.178569218749999,0.04,0.0,0.0,0.0,0.04,0.0,0.0,0.0,0.04
1614383512.3121545,275,1614383512,311297893,base_imu_link,0.06659480689310537,0.06886276511978738,-0.6717772056383057,0.734532802031139,0.0025,0.0,0.0,0.0,0.0025,0.0,0.0,0.0,0.0025,0.04,-0.03,-0.05,0.02,0.0,0.0,0.0,0.02,0.0,0.0,0.0,0.02,-2.418174921875,-0.17696765625,9.691085937499999,0.04,0.0,0.0,0.0,0.04,0.0,0.0,0.0,0.04
1614383512.3324518,276,1614383512,331628084,base_imu_link,0.06785432243566347,0.07159383695029967,-0.671846017092546,0.7340933474391478,0.0025,0.0,0.0,0.0,0.0025,0.0,0.0,0.0,0.0025,0.04,-0.0,-0.06,0.02,0.0,0.0,0.0,0.02,0.0,0.0,0.0,0.02,-0.8476827343749999,-0.38304687499999995,10.141166015624998,0.04,0.0,0.0,0.0,0.04,0.0,0.0,0.0,0.04
1614383512.3521261,277,1614383512,351422071,base_imu_link,0.06250365416036657,0.0681299229129017,-0.6724460582383767,0.7343486267299429,0.0025,0.0,0.0,0.0,0.0025,0.0,0.0,0.0,0.0025,0.06,-0.08,-0.07,0.02,0.0,0.0,0.0,0.02,0.0,0.0,0.0,0.02,-2.188346796875,-0.028728515625,9.0353096875,0.04,0.0,0.0,0.0,0.04,0.0,0.0,0.0,0.04
1614383512.3730602,278,1614383512,372076988,base_imu_link,0.06435551983755489,0.07043959126772939,-0.6727519733798741,0.7336902707287039,0.0025,0.0,0.0,0.0,0.0025,0.0,0.0,0.0,0.0025,0.01,0.04,-0.1,0.02,0.0,0.0,0.0,0.02,0.0,0.0,0.0,0.02,-2.0351280468749997,0.16739148437499998,9.767695312499999,0.04,0.0,0.0,0.0,0.04,0.0,0.0,0.0,0.04
1614383512.392626,279,1614383512,391901969,base_imu_link,0.06571533356156746,0.07013558676720508,-0.6727288660216106,0.733620042818481,0.0025,0.0,0.0,0.0,0.0025,0.0,0.0,0.0,0.0025,0.05,-0.03,-0.09,0.02,0.0,0.0,0.0,0.02,0.0,0.0,0.0,0.02,-1.6425049999999999,0.51711328125,10.227351562499999,0.04,0.0,0.0,0.0,0.04,0.0,0.0,0.0,0.04
1614383512.412739,280,1614383512,411604881,base_imu_link,0.06598674727457175,0.06658639602538158,-0.6729962665965074,0.7336811474991268,0.0025,0.0,0.0,0.0,0.0025,0.0,0.0,0.0,0.0025,0.05,-0.11,-0.08,0.02,0.0,0.0,0.0,0.02,0.0,0.0,0.0,0.02,-1.9631152343749998,0.296861328125,9.284290156249998,0.04,0.0,0.0,0.0,0.04,0.0,0.0,0.0,0.04
1614383512.4328134,281,1614383512,431853055,base_imu_link,0.06700222080261643,0.0663601025445993,-0.673278656062879,0.733350455435838,0.0025,0.0,0.0,0.0,0.0025,0.0,0.0,0.0,0.0025,-0.01,-0.07,-0.09,0.02,0.0,0.0,0.0,0.02,0.0,0.0,0.0,0.02,-1.8098964843749998,-0.2681328125,9.202701171874999,0.04,0.0,0.0,0.0,0.04,0.0,0.0,0.0,0.04
1614383512.4528697,282,1614383512,451930046,base_imu_link,0.06644000515586132,0.06852586263045998,-0.6733300259111544,0.7331552414544444,0.0025,0.0,0.0,0.0,0.0025,0.0,0.0,0.0,0.0025,-0.0,0.07,-0.09,0.02,0.0,0.0,0.0,0.02,0.0,0.0,0.0,0.02,-1.92979015625,0.05745703125,9.8872059375,0.04,0.0,0.0,0.0,0.04,0.0,0.0,0.0,0.04
1614383512.4722593,283,1614383512,471446990,base_imu_link,0.06585339118025631,0.06800277405491989,-0.6734370348322215,0.7331585870105328,0.0025,0.0,0.0,0.0,0.0025,0.0,0.0,0.0,0.0025,0.01,-0.11,-0.06,0.02,0.0,0.0,0.0,0.02,0.0,0.0,0.0,0.02,-2.0109960937499998,0.26353624999999997,9.738966796875,0.04,0.0,0.0,0.0,0.04,0.0,0.0,0.0,0.04
1614383512.4934018,284,1614383512,491981983,base_imu_link,0.0667367492936834,0.06707464724444565,-0.6733388673360153,0.7332543676824551,0.0025,0.0,0.0,0.0,0.0025,0.0,0.0,0.0,0.0025,0.03,-0.11,-0.05,0.02,0.0,0.0,0.0,0.02,0.0,0.0,0.0,0.02,-2.078029296875,-0.36389453125,9.624052734374999,0.04,0.0,0.0,0.0,0.04,0.0,0.0,0.0,0.04
1614383512.5126035,285,1614383512,511835098,base_imu_link,0.06592368745047779,0.06923568314935542,-0.6733229028994944,0.733141702566954,0.0025,0.0,0.0,0.0,0.0025,0.0,0.0,0.0,0.0025,0.04,-0.04,-0.05,0.02,0.0,0.0,0.0,0.02,0.0,0.0,0.0,0.02,-1.943962890625,-0.033708125,9.509138671874998,0.04,0.0,0.0,0.0,0.04,0.0,0.0,0.0,0.04
1614383512.533176,286,1614383512,532187938,base_imu_link,0.06627085943469989,0.06974241367990938,-0.673277986711742,0.7331036226436682,0.0025,0.0,0.0,0.0,0.0025,0.0,0.0,0.0,0.0025,0.04,-0.01,-0.06,0.02,0.0,0.0,0.0,0.02,0.0,0.0,0.0,0.02,-2.461076171875,0.229828125,9.858860468749999,0.04,0.0,0.0,0.0,0.04,0.0,0.0,0.0,0.04
1614383512.5525644,287,1614383512,551722049,base_imu_link,0.06785017945659931,0.070178757944944,-0.6732496926441714,0.7329434810649053,0.0025,0.0,0.0,0.0,0.0025,0.0,0.0,0.0,0.0025,0.01,-0.14,-0.08,0.02,0.0,0.0,0.0,0.02,0.0,0.0,0.0,0.02,-0.967193359375,0.004979609375,9.1977215625,0.04,0.0,0.0,0.0,0.04,0.0,0.0,0.0,0.04
1614383512.572757,288,1614383512,571916103,base_imu_link,0.06520788857738641,0.06729485949426535,-0.674194043082295,0.7325856437477292,0.0025,0.0,0.0,0.0,0.0025,0.0,0.0,0.0,0.0025,0.04,-0.02,-0.09,0.02,0.0,0.0,0.0,0.02,0.0,0.0,0.0,0.02,-2.690904296875,0.47421203125,9.413376953124999,0.04,0.0,0.0,0.0,0.04,0.0,0.0,0.0,0.04
1614383512.5932167,289,1614383512,592396974,base_imu_link,0.06981763266395671,0.06930674359126297,-0.6742978289777535,0.7318773881586067,0.0025,0.0,0.0,0.0,0.0025,0.0,0.0,0.0,0.0025,-0.0,-0.03,-0.09,0.02,0.0,0.0,0.0,0.02,0.0,0.0,0.0,0.02,-2.331989375,0.45008007812499995,10.078729375,0.04,0.0,0.0,0.0,0.04,0.0,0.0,0.0,0.04
1614383512.6130993,290,1614383512,612198114,base_imu_link,0.07112607607678662,0.06928004095227544,-0.6745007117144927,0.7315669122672328,0.0025,0.0,0.0,0.0,0.0025,0.0,0.0,0.0,0.0025,-0.05,-0.08,-0.09,0.02,0.0,0.0,0.0,0.02,0.0,0.0,0.0,0.02,-0.7323856249999999,-0.201099609375,9.576171875,0.04,0.0,0.0,0.0,0.04,0.0,0.0,0.0,0.04
1614383512.6345353,291,1614383512,633662939,base_imu_link,0.0657596223163895,0.06583746014452914,-0.6750266300148916,0.7319017349926574,0.0025,0.0,0.0,0.0,0.0025,0.0,0.0,0.0,0.0025,0.0,-0.06,-0.06,0.02,0.0,0.0,0.0,0.02,0.0,0.0,0.0,0.02,-2.39404296875,-0.41177539062499996,9.188528437499999,0.04,0.0,0.0,0.0,0.04,0.0,0.0,0.0,0.04
1614383512.65343,292,1614383512,652384996,base_imu_link,0.06680290316734307,0.07019138825005952,-0.6752016476987351,0.7312409152179992,0.0025,0.0,0.0,0.0,0.0025,0.0,0.0,0.0,0.0025,0.03,0.05,-0.06,0.02,0.0,0.0,0.0,0.02,0.0,0.0,0.0,0.02,-1.939366328125,-0.22523156249999998,10.32770984375,0.04,0.0,0.0,0.0,0.04,0.0,0.0,0.0,0.04
1614383512.6732218,293,1614383512,672245979,base_imu_link,0.06512373336623632,0.0697316826200584,-0.675485410412107,0.7311742966706409,0.0025,0.0,0.0,0.0,0.0025,0.0,0.0,0.0,0.0025,0.04,-0.14,-0.06,0.02,0.0,0.0,0.0,0.02,0.0,0.0,0.0,0.02,-1.1682929687499999,-0.028728515625,9.523311406249999,0.04,0.0,0.0,0.0,0.04,0.0,0.0,0.0,0.04
1614383512.6938112,294,1614383512,692728996,base_imu_link,0.06312919707401264,0.06731614732178086,-0.6756960225344181,0.7313809718045104,0.0025,0.0,0.0,0.0,0.0025,0.0,0.0,0.0,0.0025,0.05,-0.01,-0.03,0.02,0.0,0.0,0.0,0.02,0.0,0.0,0.0,0.02,-2.38944640625,-0.612875,9.269734374999999,0.04,0.0,0.0,0.0,0.04,0.0,0.0,0.0,0.04
1614383512.7136354,295,1614383512,712754011,base_imu_link,0.0636847485553764,0.07189088280898362,-0.6758978519019779,0.7307106455805028,0.0025,0.0,0.0,0.0,0.0025,0.0,0.0,0.0,0.0025,0.05,0.03,-0.03,0.02,0.0,0.0,0.0,0.02,0.0,0.0,0.0,0.02,-2.365314453125,-0.21565539062499997,9.772291874999999,0.04,0.0,0.0,0.0,0.04,0.0,0.0,0.0,0.04
1614383512.7334397,296,1614383512,732512950,base_imu_link,0.0645541299522493,0.07357191681846643,-0.6758634713991728,0.7304988058785753,0.0025,0.0,0.0,0.0,0.0025,0.0,0.0,0.0,0.0025,0.05,-0.06,-0.05,0.02,0.0,0.0,0.0,0.02,0.0,0.0,0.0,0.02,-1.249881953125,0.340145625,9.733987187499999,0.04,0.0,0.0,0.0,0.04,0.0,0.0,0.0,0.04
1614383512.7531724,297,1614383512,752474069,base_imu_link,0.06379648101950125,0.06871044205540319,-0.676077620310237,0.7308405677558727,0.0025,0.0,0.0,0.0,0.0025,0.0,0.0,0.0,0.0025,0.08,-0.09,-0.05,0.02,0.0,0.0,0.0,0.02,0.0,0.0,0.0,0.02,-2.12591015625,0.416755,9.427549687499999,0.04,0.0,0.0,0.0,0.04,0.0,0.0,0.0,0.04
1614383512.7737465,298,1614383512,772659063,base_imu_link,0.06646313529208059,0.06825488885454535,-0.6762029830107232,0.730529566521438,0.0025,0.0,0.0,0.0,0.0025,0.0,0.0,0.0,0.0025,0.03,-0.04,-0.05,0.02,0.0,0.0,0.0,0.02,0.0,0.0,0.0,0.02,-2.599739140625,0.047880859374999994,9.681509765625,0.04,0.0,0.0,0.0,0.04,0.0,0.0,0.0,0.04
1614383512.7945182,299,1614383512,792999982,base_imu_link,0.06905454220285387,0.07094265594550946,-0.6765355551222861,0.729724778545947,0.0025,0.0,0.0,0.0,0.0025,0.0,0.0,0.0,0.0025,0.02,-0.01,-0.06,0.02,0.0,0.0,0.0,0.02,0.0,0.0,0.0,0.02,-1.6854062499999998,0.181947265625,9.782251093749998,0.04,0.0,0.0,0.0,0.04,0.0,0.0,0.0,0.04
1614383512.8131833,300,1614383512,812372922,base_imu_link,0.06836700022565131,0.06909048363753463,-0.6771485502169452,0.7293985873923575,0.0025,0.0,0.0,0.0,0.0025,0.0,0.0,0.0,0.0025,0.02,-0.07,-0.09,0.02,0.0,0.0,0.0,0.02,0.0,0.0,0.0,0.02,-1.728690546875,0.28728515624999995,9.662357421874999,0.04,0.0,0.0,0.0,0.04,0.0,0.0,0.0,0.04
1614383512.8340821,301,1614383512,832766056,base_imu_link,0.06787386584298453,0.06705538809306509,-0.6778381260622116,0.7289939561612884,0.0025,0.0,0.0,0.0,0.0025,0.0,0.0,0.0,0.0025,-0.0,-0.12,-0.09,0.02,0.0,0.0,0.0,0.02,0.0,0.0,0.0,0.02,-2.35114171875,-0.292264765625,9.571575312499998,0.04,0.0,0.0,0.0,0.04,0.0,0.0,0.0,0.04
1614383512.853439,302,1614383512,852600097,base_imu_link,0.06826963755897761,0.07024173518293783,-0.6784240465861788,0.7281113707666501,0.0025,0.0,0.0,0.0,0.0025,0.0,0.0,0.0,0.0025,0.02,-0.02,-0.09,0.02,0.0,0.0,0.0,0.02,0.0,0.0,0.0,0.02,-2.384466796875,-0.27770898437499997,9.820555781249999,0.04,0.0,0.0,0.0,0.04,0.0,0.0,0.0,0.04
1614383512.873677,303,1614383512,872595071,base_imu_link,0.06827538341569425,0.07249058610400233,-0.679084616351759,0.7272741372963308,0.0025,0.0,0.0,0.0,0.0025,0.0,0.0,0.0,0.0025,0.02,-0.06,-0.08,0.02,0.0,0.0,0.0,0.02,0.0,0.0,0.0,0.02,-1.503458984375,0.522092890625,9.691085937499999,0.04,0.0,0.0,0.0,0.04,0.0,0.0,0.0,0.04
1614383512.8940735,304,1614383512,893044948,base_imu_link,0.06795332291292143,0.068392766782936,-0.6797921083255404,0.7270402085271378,0.0025,0.0,0.0,0.0,0.0025,0.0,0.0,0.0,0.0025,-0.0,-0.12,-0.06,0.02,0.0,0.0,0.0,0.02,0.0,0.0,0.0,0.02,-1.4797100781249999,-0.13406640625,9.0016015625,0.04,0.0,0.0,0.0,0.04,0.0,0.0,0.0,0.04
1614383512.913776,305,1614383512,912909030,base_imu_link,0.06662929812157152,0.06796239424172593,-0.6806406446554912,0.7264089498648237,0.0025,0.0,0.0,0.0,0.0025,0.0,0.0,0.0,0.0025,0.02,-0.03,-0.05,0.02,0.0,0.0,0.0,0.02,0.0,0.0,0.0,0.02,-3.1697128906249996,-0.12946984374999998,9.982967656249999,0.04,0.0,0.0,0.0,0.04,0.0,0.0,0.0,0.04
1614383512.9333532,306,1614383512,932447910,base_imu_link,0.06942698155530733,0.07200476409113642,-0.6807094501385902,0.7256926709512211,0.0025,0.0,0.0,0.0,0.0025,0.0,0.0,0.0,0.0025,0.01,-0.09,-0.04,0.02,0.0,0.0,0.0,0.02,0.0,0.0,0.0,0.02,-1.0679346875,0.10074132812499999,10.031231562499999,0.04,0.0,0.0,0.0,0.04,0.0,0.0,0.0,0.04
1614383512.9541116,307,1614383512,952893018,base_imu_link,0.06603880931167345,0.06744131333061804,-0.6814388934553876,0.7257627569717497,0.0025,0.0,0.0,0.0,0.0025,0.0,0.0,0.0,0.0025,0.04,-0.13,-0.04,0.02,0.0,0.0,0.0,0.02,0.0,0.0,0.0,0.02,-1.139564453125,-0.31601367187499996,8.967893437499999,0.04,0.0,0.0,0.0,0.04,0.0,0.0,0.0,0.04
1614383512.9741793,308,1614383512,972960948,base_imu_link,0.06392993064411737,0.06703642191883957,-0.6824679547629066,0.7250217740357133,0.0025,0.0,0.0,0.0,0.0025,0.0,0.0,0.0,0.0025,0.03,0.05,-0.05,0.02,0.0,0.0,0.0,0.02,0.0,0.0,0.0,0.02,-2.80083875,0.27311242187499996,9.4612578125,0.04,0.0,0.0,0.0,0.04,0.0,0.0,0.0,0.04
1614383512.9946728,309,1614383512,992850065,base_imu_link,0.06851374552077635,0.06987959710857847,-0.6822267383336467,0.7245615129754623,0.0025,0.0,0.0,0.0,0.0025,0.0,0.0,0.0,0.0025,0.01,-0.02,-0.05,0.02,0.0,0.0,0.0,0.02,0.0,0.0,0.0,0.02,-1.197021484375,0.23480773437499997,10.126610234374999,0.04,0.0,0.0,0.0,0.04,0.0,0.0,0.0,0.04
1614383513.0140536,310,1614383513,12975931,base_imu_link,0.06621935920694971,0.0655945712022995,-0.6829884262414662,0.7244578375000251,0.0025,0.0,0.0,0.0,0.0025,0.0,0.0,0.0,0.0025,0.04,-0.11,-0.04,0.02,0.0,0.0,0.0,0.02,0.0,0.0,0.0,0.02,-2.04930078125,-0.296861328125,9.54246375,0.04,0.0,0.0,0.0,0.04,0.0,0.0,0.0,0.04
1614383513.0336187,311,1614383513,32798051,base_imu_link,0.06612536036423705,0.06770979596829267,-0.6837957735016255,0.7235096131966359,0.0025,0.0,0.0,0.0,0.0025,0.0,0.0,0.0,0.0025,0.04,-0.01,-0.06,0.02,0.0,0.0,0.0,0.02,0.0,0.0,0.0,0.02,-2.374890625,0.14364257812499998,9.533270624999998,0.04,0.0,0.0,0.0,0.04,0.0,0.0,0.0,0.04
1614383513.0541961,312,1614383513,53189039,base_imu_link,0.06841286522479362,0.06948938996189595,-0.6843273639512683,0.7226250504251609,0.0025,0.0,0.0,0.0,0.0025,0.0,0.0,0.0,0.0025,-0.0,-0.02,-0.1,0.02,0.0,0.0,0.0,0.02,0.0,0.0,0.0,0.02,-1.403100703125,0.4979609375,9.782251093749998,0.04,0.0,0.0,0.0,0.04,0.0,0.0,0.0,0.04
1614383513.074414,313,1614383513,73214054,base_imu_link,0.06764641228069503,0.06566463772635812,-0.6852419631614883,0.7221880435041872,0.0025,0.0,0.0,0.0,0.0025,0.0,0.0,0.0,0.0025,-0.02,-0.09,-0.12,0.02,0.0,0.0,0.0,0.02,0.0,0.0,0.0,0.02,-1.388544921875,0.6320273437499999,9.21227734375,0.04,0.0,0.0,0.0,0.04,0.0,0.0,0.0,0.04
1614383513.0948157,314,1614383513,93668937,base_imu_link,0.06775004802096521,0.06256874810350335,-0.6857657736079609,0.7219559449868064,0.0025,0.0,0.0,0.0,0.0025,0.0,0.0,0.0,0.0025,-0.03,-0.07,-0.07,0.02,0.0,0.0,0.0,0.02,0.0,0.0,0.0,0.02,-2.657196171875,-0.483788203125,9.8014034375,0.04,0.0,0.0,0.0,0.04,0.0,0.0,0.0,0.04
1614383513.1143117,315,1614383513,113162994,base_imu_link,0.06840149756913091,0.0675782576752919,-0.6858187635596109,0.7213924297977061,0.0025,0.0,0.0,0.0,0.0025,0.0,0.0,0.0,0.0025,0.0,-0.01,-0.04,0.02,0.0,0.0,0.0,0.02,0.0,0.0,0.0,0.02,-2.60471875,-0.033708125,9.9638153125,0.04,0.0,0.0,0.0,0.04,0.0,0.0,0.0,0.04
1614383513.134348,316,1614383513,133249044,base_imu_link,0.06957075215726534,0.0688613483499685,-0.686077582651969,0.7209130153701814,0.0025,0.0,0.0,0.0,0.0025,0.0,0.0,0.0,0.0025,0.04,-0.16,-0.02,0.02,0.0,0.0,0.0,0.02,0.0,0.0,0.0,0.02,-0.9051397656249999,-0.21067578124999997,9.638225468749999,0.04,0.0,0.0,0.0,0.04,0.0,0.0,0.0,0.04
1614383513.154373,317,1614383513,153598070,base_imu_link,0.06566731674016317,0.06597718553427402,-0.6872007055321362,0.7204790106708575,0.0025,0.0,0.0,0.0,0.0025,0.0,0.0,0.0,0.0025,0.06,-0.0,-0.04,0.02,0.0,0.0,0.0,0.02,0.0,0.0,0.0,0.02,-2.068453125,-0.49336437499999997,9.55242296875,0.04,0.0,0.0,0.0,0.04,0.0,0.0,0.0,0.04
1614383513.175257,318,1614383513,173549890,base_imu_link,0.06416699474805215,0.06812933994613851,-0.6879284211162103,0.7197190265958412,0.0025,0.0,0.0,0.0,0.0025,0.0,0.0,0.0,0.0025,0.02,-0.11,-0.06,0.02,0.0,0.0,0.0,0.02,0.0,0.0,0.0,0.02,-2.8824277343749998,0.35431835937499995,9.437508906249999,0.04,0.0,0.0,0.0,0.04,0.0,0.0,0.0,0.04
1614383513.1941578,319,1614383513,193147897,base_imu_link,0.06954045752534643,0.07092249736993551,-0.6879928765113817,0.7188879787585627,0.0025,0.0,0.0,0.0,0.0025,0.0,0.0,0.0,0.0025,0.02,-0.0,-0.06,0.02,0.0,0.0,0.0,0.02,0.0,0.0,0.0,0.02,-1.082107421875,0.3064375,10.01207921875,0.04,0.0,0.0,0.0,0.04,0.0,0.0,0.0,0.04
1614383513.2143967,320,1614383513,213601112,base_imu_link,0.06688363136538589,0.06636842021389902,-0.6891613128317948,0.7184556336682507,0.0025,0.0,0.0,0.0,0.0025,0.0,0.0,0.0,0.0025,-0.01,-0.09,-0.08,0.02,0.0,0.0,0.0,0.02,0.0,0.0,0.0,0.02,-1.465154296875,0.22523156249999998,9.279310546875,0.04,0.0,0.0,0.0,0.04,0.0,0.0,0.0,0.04
1614383513.2345603,321,1614383513,233612060,base_imu_link,0.06609006605359326,0.06447508642115972,-0.6903241288990218,0.7175846036947995,0.0025,0.0,0.0,0.0,0.0025,0.0,0.0,0.0,0.0025,-0.01,-0.07,-0.08,0.02,0.0,0.0,0.0,0.02,0.0,0.0,0.0,0.02,-3.021090703125,0.4550596875,9.442105468749999,0.04,0.0,0.0,0.0,0.04,0.0,0.0,0.0,0.04
1614383513.2544386,322,1614383513,253565073,base_imu_link,0.07183467159028474,0.06798486788858561,-0.6904562726666511,0.7165807513678851,0.0025,0.0,0.0,0.0,0.0025,0.0,0.0,0.0,0.0025,-0.02,-0.0,-0.07,0.02,0.0,0.0,0.0,0.02,0.0,0.0,0.0,0.02,-1.0775108593749998,-0.076609375,10.203219609375,0.04,0.0,0.0,0.0,0.04,0.0,0.0,0.0,0.04
1614383513.2746584,323,1614383513,273452043,base_imu_link,0.06764937773771915,0.0646554235918983,-0.6913059052379943,0.7164770640257293,0.0025,0.0,0.0,0.0,0.0025,0.0,0.0,0.0,0.0025,0.01,-0.11,-0.06,0.02,0.0,0.0,0.0,0.02,0.0,0.0,0.0,0.02,-1.0679346875,-0.2681328125,9.0782109375,0.04,0.0,0.0,0.0,0.04,0.0,0.0,0.0,0.04
1614383513.2949321,324,1614383513,293579101,base_imu_link,0.06539808665523894,0.06368408805682325,-0.6921288966266177,0.7159783639500745,0.0025,0.0,0.0,0.0,0.0025,0.0,0.0,0.0,0.0025,0.07,0.03,-0.04,0.02,0.0,0.0,0.0,0.02,0.0,0.0,0.0,0.02,-3.6293691406249997,0.05286046874999999,9.681509765625,0.04,0.0,0.0,0.0,0.04,0.0,0.0,0.0,0.04
1614383513.314607,325,1614383513,313781976,base_imu_link,0.07092975006955778,0.06945009817746033,-0.692044492348483,0.7149965559555808,0.0025,0.0,0.0,0.0,0.0025,0.0,0.0,0.0,0.0025,0.01,-0.06,-0.04,0.02,0.0,0.0,0.0,0.02,0.0,0.0,0.0,0.02,-1.211577265625,-0.32099328125,10.394743046875,0.04,0.0,0.0,0.0,0.04,0.0,0.0,0.0,0.04
1614383513.335396,326,1614383513,333558082,base_imu_link,0.06731796689366716,0.06750537393430839,-0.6926515391521348,0.7149441664448147,0.0025,0.0,0.0,0.0,0.0025,0.0,0.0,0.0,0.0025,0.06,-0.04,-0.04,0.02,0.0,0.0,0.0,0.02,0.0,0.0,0.0,0.02,-1.5850479687499999,-0.14364257812499998,9.32719140625,0.04,0.0,0.0,0.0,0.04,0.0,0.0,0.0,0.04
1614383513.3541331,327,1614383513,353434085,base_imu_link,0.06625510413952089,0.06671857628296647,-0.693710904900354,0.7140896814662478,0.0025,0.0,0.0,0.0,0.0025,0.0,0.0,0.0,0.0025,0.06,-0.05,-0.02,0.02,0.0,0.0,0.0,0.02,0.0,0.0,0.0,0.02,-2.982786015625,0.028728515625,9.2743309375,0.04,0.0,0.0,0.0,0.04,0.0,0.0,0.0,0.04
1614383513.374546,328,1614383513,373481035,base_imu_link,0.0707981535550842,0.071022090559259,-0.6939252360843873,0.7130296282981587,0.0025,0.0,0.0,0.0,0.0025,0.0,0.0,0.0,0.0025,0.03,-0.01,-0.04,0.02,0.0,0.0,0.0,0.02,0.0,0.0,0.0,0.02,-1.3406640625,-0.009576171875,10.193643437499999,0.04,0.0,0.0,0.0,0.04,0.0,0.0,0.0,0.04
1614383513.3945909,329,1614383513,393559932,base_imu_link,0.06838591207641814,0.06803572640906917,-0.6948875126659207,0.7126190087995384,0.0025,0.0,0.0,0.0,0.0025,0.0,0.0,0.0,0.0025,0.06,-0.07,-0.05,0.02,0.0,0.0,0.0,0.02,0.0,0.0,0.0,0.02,-1.8003203124999998,0.14862218749999997,10.189046874999999,0.04,0.0,0.0,0.0,0.04,0.0,0.0,0.0,0.04
1614383513.4147167,330,1614383513,413573980,base_imu_link,0.06780245793946893,0.06617467975101848,-0.6958003060674881,0.7119590385223062,0.0025,0.0,0.0,0.0,0.0025,0.0,0.0,0.0,0.0025,0.04,-0.12,-0.06,0.02,0.0,0.0,0.0,0.02,0.0,0.0,0.0,0.02,-1.862756953125,0.368874140625,9.178569218749999,0.04,0.0,0.0,0.0,0.04,0.0,0.0,0.0,0.04
1614383513.4356115,331,1614383513,433558940,base_imu_link,0.06934892786713028,0.0652651904820014,-0.6965643184792562,0.7111464907714561,0.0025,0.0,0.0,0.0,0.0025,0.0,0.0,0.0,0.0025,0.02,-0.03,-0.07,0.02,0.0,0.0,0.0,0.02,0.0,0.0,0.0,0.02,-2.1163339843749998,0.20607921875,9.4612578125,0.04,0.0,0.0,0.0,0.04,0.0,0.0,0.0,0.04
1614383513.4548287,332,1614383513,453741073,base_imu_link,0.07099480910134956,0.0659577088066994,-0.697118285697037,0.7103769516787956,0.0025,0.0,0.0,0.0,0.0025,0.0,0.0,0.0,0.0025,0.02,-0.01,-0.08,0.02,0.0,0.0,0.0,0.02,0.0,0.0,0.0,0.02,-1.81487609375,0.28268859375,9.968794921874998,0.04,0.0,0.0,0.0,0.04,0.0,0.0,0.0,0.04
1614383513.4751282,333,1614383513,474240064,base_imu_link,0.07020497051353596,0.06392776942593445,-0.6978546815795804,0.7099178444079851,0.0025,0.0,0.0,0.0,0.0025,0.0,0.0,0.0,0.0025,-0.0,-0.15,-0.08,0.02,0.0,0.0,0.0,0.02,0.0,0.0,0.0,0.02,-1.838625,-0.033708125,9.5378671875,0.04,0.0,0.0,0.0,0.04,0.0,0.0,0.0,0.04
1614383513.495034,334,1614383513,494286060,base_imu_link,0.06946921026942726,0.06439520518301306,-0.699222067873849,0.7086012885764452,0.0025,0.0,0.0,0.0,0.0025,0.0,0.0,0.0,0.0025,-0.01,-0.05,-0.09,0.02,0.0,0.0,0.0,0.02,0.0,0.0,0.0,0.02,-2.4469034375,-0.06243664062499999,9.4995625,0.04,0.0,0.0,0.0,0.04,0.0,0.0,0.0,0.04
1614383513.5150983,335,1614383513,514152050,base_imu_link,0.07100856600092763,0.06750759901636769,-0.6998526525549403,0.707535703933979,0.0025,0.0,0.0,0.0,0.0025,0.0,0.0,0.0,0.0025,-0.02,-0.02,-0.08,0.02,0.0,0.0,0.0,0.02,0.0,0.0,0.0,0.02,-1.7332871093749997,0.13406640625,9.873033203124999,0.04,0.0,0.0,0.0,0.04,0.0,0.0,0.0,0.04
1614383513.535358,336,1614383513,534359931,base_imu_link,0.07002548575306378,0.0659107702709955,-0.7005523178215268,0.7070916854992838,0.0025,0.0,0.0,0.0,0.0025,0.0,0.0,0.0,0.0025,0.02,-0.1,-0.07,0.02,0.0,0.0,0.0,0.02,0.0,0.0,0.0,0.02,-1.09168359375,-0.42135156249999994,9.624052734374999,0.04,0.0,0.0,0.0,0.04,0.0,0.0,0.0,0.04
1614383513.5554733,337,1614383513,553824901,base_imu_link,0.06546041190868546,0.06431580336763773,-0.7017347303313037,0.7065032060484743,0.0025,0.0,0.0,0.0,0.0025,0.0,0.0,0.0,0.0025,0.03,-0.07,-0.04,0.02,0.0,0.0,0.0,0.02,0.0,0.0,0.0,0.02,-3.4665742187499995,0.05745703125,9.547443359374999,0.04,0.0,0.0,0.0,0.04,0.0,0.0,0.0,0.04
1614383513.5757725,338,1614383513,574379920,base_imu_link,0.07120711416064598,0.06999273391742422,-0.7017476062007376,0.7053941176981929,0.0025,0.0,0.0,0.0,0.0025,0.0,0.0,0.0,0.0025,0.0,-0.02,-0.03,0.02,0.0,0.0,0.0,0.02,0.0,0.0,0.0,0.02,-0.8714316406249999,0.22025195312499998,10.150742187499999,0.04,0.0,0.0,0.0,0.04,0.0,0.0,0.0,0.04
1614383513.5961087,339,1614383513,594302892,base_imu_link,0.06749914640444268,0.06424613135999259,-0.7025362197069679,0.7055204886038314,0.0025,0.0,0.0,0.0,0.0025,0.0,0.0,0.0,0.0025,0.05,-0.14,-0.02,0.02,0.0,0.0,0.0,0.02,0.0,0.0,0.0,0.02,-1.211577265625,0.10074132812499999,8.8146746875,0.04,0.0,0.0,0.0,0.04,0.0,0.0,0.0,0.04
1614383513.6155481,340,1614383513,614751100,base_imu_link,0.06673110105803765,0.06292452787321369,-0.7029601103649441,0.7052903991826489,0.0025,0.0,0.0,0.0,0.0025,0.0,0.0,0.0,0.0025,0.02,0.02,-0.02,0.02,0.0,0.0,0.0,0.02,0.0,0.0,0.0,0.02,-1.9631152343749998,-0.14364257812499998,9.54246375,0.04,0.0,0.0,0.0,0.04,0.0,0.0,0.0,0.04
1614383513.636871,341,1614383513,635246038,base_imu_link,0.06749257706954255,0.06498595508662719,-0.7030784687891223,0.704912933919597,0.0025,0.0,0.0,0.0,0.0025,0.0,0.0,0.0,0.0025,0.01,0.07,-0.02,0.02,0.0,0.0,0.0,0.02,0.0,0.0,0.0,0.02,-1.728690546875,-0.20607921875,10.74906140625,0.04,0.0,0.0,0.0,0.04,0.0,0.0,0.0,0.04
1614383513.6554618,342,1614383513,654298067,base_imu_link,0.0653437787973211,0.06405968176524379,-0.7038334506120961,0.7044466065956257,0.0025,0.0,0.0,0.0,0.0025,0.0,0.0,0.0,0.0025,0.01,-0.11,-0.02,0.02,0.0,0.0,0.0,0.02,0.0,0.0,0.0,0.02,-1.446001953125,-0.124490234375,9.226833124999999,0.04,0.0,0.0,0.0,0.04,0.0,0.0,0.0,0.04
1614383513.6754127,343,1614383513,674309968,base_imu_link,0.06425993744347591,0.06379064720880166,-0.704771787865513,0.7036321061444617,0.0025,0.0,0.0,0.0,0.0025,0.0,0.0,0.0,0.0025,0.01,-0.0,-0.04,0.02,0.0,0.0,0.0,0.02,0.0,0.0,0.0,0.02,-2.7387851562499996,0.258556640625,9.3417471875,0.04,0.0,0.0,0.0,0.04,0.0,0.0,0.0,0.04
1614383513.6955914,344,1614383513,694610118,base_imu_link,0.06875488154984617,0.06641873821333881,-0.7052571557942288,0.702476805082025,0.0025,0.0,0.0,0.0,0.0025,0.0,0.0,0.0,0.0025,0.01,-0.04,-0.06,0.02,0.0,0.0,0.0,0.02,0.0,0.0,0.0,0.02,-1.2640546874999998,0.16739148437499998,10.189046874999999,0.04,0.0,0.0,0.0,0.04,0.0,0.0,0.0,0.04
1614383513.715748,345,1614383513,714731931,base_imu_link,0.06659389082080801,0.06353826571077598,-0.7061319413539087,0.7020725203962715,0.0025,0.0,0.0,0.0,0.0025,0.0,0.0,0.0,0.0025,-0.0,-0.05,-0.07,0.02,0.0,0.0,0.0,0.02,0.0,0.0,0.0,0.02,-1.6471015624999998,0.45008007812499995,9.528291015625,0.04,0.0,0.0,0.0,0.04,0.0,0.0,0.0,0.04
1614383513.7355843,346,1614383513,734664916,base_imu_link,0.06688482922359244,0.061520818293425976,-0.706189896525616,0.7021662471105954,0.0025,0.0,0.0,0.0,0.0025,0.0,0.0,0.0,0.0025,-0.04,-0.09,-0.03,0.02,0.0,0.0,0.0,0.02,0.0,0.0,0.0,0.02,-2.47065234375,-0.2681328125,9.691085937499999,0.04,0.0,0.0,0.0,0.04,0.0,0.0,0.0,0.04
1614383513.7557263,347,1614383513,754659891,base_imu_link,0.06780452370446058,0.06490704682904275,-0.7064310045392992,0.7015303683111233,0.0025,0.0,0.0,0.0,0.0025,0.0,0.0,0.0,0.0025,-0.01,-0.06,-0.0,0.02,0.0,0.0,0.0,0.02,0.0,0.0,0.0,0.02,-2.322413203125,-0.32558984375,10.064556640625,0.04,0.0,0.0,0.0,0.04,0.0,0.0,0.0,0.04
1614383513.775786,348,1614383513,774905920,base_imu_link,0.06822234345456024,0.06732152263133213,-0.7066276345394585,0.7010641272732021,0.0025,0.0,0.0,0.0,0.0025,0.0,0.0,0.0,0.0025,0.03,-0.01,0.01,0.02,0.0,0.0,0.0,0.02,0.0,0.0,0.0,0.02,-0.65577625,-0.20607921875,9.901761718749999,0.04,0.0,0.0,0.0,0.04,0.0,0.0,0.0,0.04
1614383513.7965577,349,1614383513,795392036,base_imu_link,0.06275327069994312,0.06296421884394368,-0.7072185290591588,0.7013839792276632,0.0025,0.0,0.0,0.0,0.0025,0.0,0.0,0.0,0.0025,0.04,-0.09,-0.01,0.02,0.0,0.0,0.0,0.02,0.0,0.0,0.0,0.02,-2.7196328124999996,-0.407178828125,9.533270624999998,0.04,0.0,0.0,0.0,0.04,0.0,0.0,0.0,0.04
1614383513.815952,350,1614383513,815146923,base_imu_link,0.06457164073763827,0.06779893895276887,-0.7075543876737957,0.7004288654623596,0.0025,0.0,0.0,0.0,0.0025,0.0,0.0,0.0,0.0025,-0.01,-0.06,-0.03,0.02,0.0,0.0,0.0,0.02,0.0,0.0,0.0,0.02,-2.461076171875,0.229828125,9.494965937499998,0.04,0.0,0.0,0.0,0.04,0.0,0.0,0.0,0.04
1614383513.8363023,351,1614383513,835326910,base_imu_link,0.06799370897666823,0.06903503573488,-0.7077931292172968,0.6997427424514433,0.0025,0.0,0.0,0.0,0.0025,0.0,0.0,0.0,0.0025,0.01,-0.03,-0.03,0.02,0.0,0.0,0.0,0.02,0.0,0.0,0.0,0.02,-1.024650390625,0.229828125,10.035828124999998,0.04,0.0,0.0,0.0,0.04,0.0,0.0,0.0,0.04
1614383513.8557527,352,1614383513,854758977,base_imu_link,0.0652977885290544,0.06447109095784027,-0.7085947207192268,0.6996236123893774,0.0025,0.0,0.0,0.0,0.0025,0.0,0.0,0.0,0.0025,0.01,-0.09,-0.05,0.02,0.0,0.0,0.0,0.02,0.0,0.0,0.0,0.02,-1.8340284375,0.34474218749999996,9.312635624999999,0.04,0.0,0.0,0.0,0.04,0.0,0.0,0.0,0.04
1614383513.8762028,353,1614383513,875081062,base_imu_link,0.06618324366663607,0.06320196580358303,-0.7090725673512953,0.6991719273584774,0.0025,0.0,0.0,0.0,0.0025,0.0,0.0,0.0,0.0025,-0.01,-0.1,-0.07,0.02,0.0,0.0,0.0,0.02,0.0,0.0,0.0,0.02,-2.3365859374999998,0.41177539062499996,9.25517859375,0.04,0.0,0.0,0.0,0.04,0.0,0.0,0.0,0.04
1614383513.8966,354,1614383513,895524978,base_imu_link,0.0700363351898073,0.06473670636203417,-0.7092895995880037,0.6984356337694019,0.0025,0.0,0.0,0.0,0.0025,0.0,0.0,0.0,0.0025,-0.02,0.06,-0.06,0.02,0.0,0.0,0.0,0.02,0.0,0.0,0.0,0.02,-1.460557734375,-0.35929796875,10.428451171874999,0.04,0.0,0.0,0.0,0.04,0.0,0.0,0.0,0.04
1614383513.916365,355,1614383513,915290117,base_imu_link,0.0658484043882175,0.06329167432983006,-0.7100926756345756,0.6981593969933959,0.0025,0.0,0.0,0.0,0.0025,0.0,0.0,0.0,0.0025,-0.0,-0.19,-0.03,0.02,0.0,0.0,0.0,0.02,0.0,0.0,0.0,0.02,-1.7428632812499998,-0.30184093749999996,8.953720703124999,0.04,0.0,0.0,0.0,0.04,0.0,0.0,0.0,0.04
1614383513.9361677,356,1614383513,935317993,base_imu_link,0.0657750612871026,0.06510162829257149,-0.7102886930471524,0.697800395410967,0.0025,0.0,0.0,0.0,0.0025,0.0,0.0,0.0,0.0025,0.02,0.05,-0.03,0.02,0.0,0.0,0.0,0.02,0.0,0.0,0.0,0.02,-2.10216125,-0.32099328125,9.782251093749998,0.04,0.0,0.0,0.0,0.04,0.0,0.0,0.0,0.04
1614383513.9559247,357,1614383513,955204010,base_imu_link,0.06612145079892638,0.06710728983675594,-0.7109424774707607,0.6969112993220499,0.0025,0.0,0.0,0.0,0.0025,0.0,0.0,0.0,0.0025,0.04,0.01,-0.03,0.02,0.0,0.0,0.0,0.02,0.0,0.0,0.0,0.02,-1.843604609375,-0.14364257812499998,10.533789062499999,0.04,0.0,0.0,0.0,0.04,0.0,0.0,0.0,0.04
1614383513.9760368,358,1614383513,975127935,base_imu_link,0.06516565344305017,0.06634605955755853,-0.7113788293126947,0.6966288819724783,0.0025,0.0,0.0,0.0,0.0025,0.0,0.0,0.0,0.0025,0.05,-0.08,-0.03,0.02,0.0,0.0,0.0,0.02,0.0,0.0,0.0,0.02,-1.613776484375,-0.05286046874999999,9.346343749999999,0.04,0.0,0.0,0.0,0.04,0.0,0.0,0.0,0.04
1614383513.9964974,359,1614383513,995588064,base_imu_link,0.06458062122522382,0.0653302942597347,-0.711897781032615,0.6962491259419574,0.0025,0.0,0.0,0.0,0.0025,0.0,0.0,0.0,0.0025,0.04,-0.07,-0.02,0.02,0.0,0.0,0.0,0.02,0.0,0.0,0.0,0.02,-2.2599765625,-0.17696765625,9.1977215625,0.04,0.0,0.0,0.0,0.04,0.0,0.0,0.0,0.04
1614383514.0163004,360,1614383514,15409946,base_imu_link,0.06668091655122439,0.06803071587680937,-0.712055946825206,0.6956305094344533,0.0025,0.0,0.0,0.0,0.0025,0.0,0.0,0.0,0.0025,0.04,0.05,-0.05,0.02,0.0,0.0,0.0,0.02,0.0,0.0,0.0,0.02,-1.288186640625,-0.12946984374999998,10.275232421875,0.04,0.0,0.0,0.0,0.04,0.0,0.0,0.0,0.04
1614383514.0371075,361,1614383514,35969972,base_imu_link,0.06386333398339428,0.06494857566569973,-0.7128382150785196,0.6953882629259662,0.0025,0.0,0.0,0.0,0.0025,0.0,0.0,0.0,0.0025,0.07,-0.12,-0.06,0.02,0.0,0.0,0.0,0.02,0.0,0.0,0.0,0.02,-2.47065234375,0.45965625,9.6956825,0.04,0.0,0.0,0.0,0.04,0.0,0.0,0.0,0.04
1614383514.055976,362,1614383514,55072069,base_imu_link,0.06754001449872298,0.06503690451327973,-0.7127011414957535,0.6951730938431756,0.0025,0.0,0.0,0.0,0.0025,0.0,0.0,0.0,0.0025,0.01,-0.09,-0.05,0.02,0.0,0.0,0.0,0.02,0.0,0.0,0.0,0.02,-2.0638565625,-0.13406640625,9.561616093749999,0.04,0.0,0.0,0.0,0.04,0.0,0.0,0.0,0.04
1614383514.0762389,363,1614383514,75499057,base_imu_link,0.06819148762351224,0.06660854712006191,-0.7127311211447883,0.6949299039600615,0.0025,0.0,0.0,0.0,0.0025,0.0,0.0,0.0,0.0025,0.02,0.0,-0.03,0.02,0.0,0.0,0.0,0.02,0.0,0.0,0.0,0.02,-1.7907441406249998,-0.23480773437499997,9.820555781249999,0.04,0.0,0.0,0.0,0.04,0.0,0.0,0.0,0.04
1614383514.0965722,364,1614383514,95655918,base_imu_link,0.06750744743883363,0.06706210753067562,-0.7131697689096886,0.6945029150314189,0.0025,0.0,0.0,0.0,0.0025,0.0,0.0,0.0,0.0025,0.04,0.0,-0.04,0.02,0.0,0.0,0.0,0.02,0.0,0.0,0.0,0.02,-2.303260859375,0.47880859374999996,9.982967656249999,0.04,0.0,0.0,0.0,0.04,0.0,0.0,0.0,0.04
1614383514.1160073,365,1614383514,115309953,base_imu_link,0.06911159812057846,0.06541365602739814,-0.7136229907019104,0.694036647268723,0.0025,0.0,0.0,0.0,0.0025,0.0,0.0,0.0,0.0025,-0.0,-0.2,-0.06,0.02,0.0,0.0,0.0,0.02,0.0,0.0,0.0,0.02,-1.771591796875,0.31601367187499996,9.135667968749999,0.04,0.0,0.0,0.0,0.04,0.0,0.0,0.0,0.04
1614383514.136536,366,1614383514,135653018,base_imu_link,0.07039679943349655,0.06533531306690006,-0.7142266193046459,0.6932935336296067,0.0025,0.0,0.0,0.0,0.0025,0.0,0.0,0.0,0.0025,-0.03,0.05,-0.1,0.02,0.0,0.0,0.0,0.02,0.0,0.0,0.0,0.02,-2.365314453125,0.076609375,10.007099609374999,0.04,0.0,0.0,0.0,0.04,0.0,0.0,0.0,0.04
1614383514.1562154,367,1614383514,155329942,base_imu_link,0.07086831500011587,0.06634281957266452,-0.7150278505532167,0.692323251923146,0.0025,0.0,0.0,0.0,0.0025,0.0,0.0,0.0,0.0025,-0.04,-0.11,-0.09,0.02,0.0,0.0,0.0,0.02,0.0,0.0,0.0,0.02,-1.5850479687499999,0.04290125,9.95921875,0.04,0.0,0.0,0.0,0.04,0.0,0.0,0.0,0.04
1614383514.1768813,368,1614383514,175884962,base_imu_link,0.06894143388297283,0.06445929272150903,-0.7159299157891342,0.6917632788419502,0.0025,0.0,0.0,0.0,0.0025,0.0,0.0,0.0,0.0025,0.0,-0.12,-0.07,0.02,0.0,0.0,0.0,0.02,0.0,0.0,0.0,0.02,-1.3598164062499998,-0.43590734375,9.068634765625,0.04,0.0,0.0,0.0,0.04,0.0,0.0,0.0,0.04
1614383514.1968772,369,1614383514,195763111,base_imu_link,0.06666081514166021,0.06481963043799234,-0.7170399419860461,0.6908027741918664,0.0025,0.0,0.0,0.0,0.0025,0.0,0.0,0.0,0.0025,0.04,0.01,-0.09,0.02,0.0,0.0,0.0,0.02,0.0,0.0,0.0,0.02,-3.3995410156249997,0.0,9.76309875,0.04,0.0,0.0,0.0,0.04,0.0,0.0,0.0,0.04
1614383514.217069,370,1614383514,216252088,base_imu_link,0.0712770327267026,0.06954343082979916,-0.7169814683694317,0.6899426569280313,0.0025,0.0,0.0,0.0,0.0025,0.0,0.0,0.0,0.0025,-0.01,-0.08,-0.08,0.02,0.0,0.0,0.0,0.02,0.0,0.0,0.0,0.02,-0.9913253124999999,0.067033203125,10.13158984375,0.04,0.0,0.0,0.0,0.04,0.0,0.0,0.0,0.04
1614383514.2368007,371,1614383514,235719919,base_imu_link,0.06729080692520362,0.06491728361475514,-0.7178048355328823,0.6899376143370124,0.0025,0.0,0.0,0.0,0.0025,0.0,0.0,0.0,0.0025,0.02,-0.14,-0.05,0.02,0.0,0.0,0.0,0.02,0.0,0.0,0.0,0.02,-1.556319453125,-0.17237109374999998,8.7380653125,0.04,0.0,0.0,0.0,0.04,0.0,0.0,0.0,0.04
1614383514.2573292,372,1614383514,256148099,base_imu_link,0.06722837829680137,0.0656098427483757,-0.718216828821644,0.6894492588171353,0.0025,0.0,0.0,0.0,0.0025,0.0,0.0,0.0,0.0025,0.03,0.06,-0.06,0.02,0.0,0.0,0.0,0.02,0.0,0.0,0.0,0.02,-2.10216125,-0.0720128125,10.28940515625,0.04,0.0,0.0,0.0,0.04,0.0,0.0,0.0,0.04
1614383514.276954,373,1614383514,276098012,base_imu_link,0.06728719124471665,0.06617702173445329,-0.7186392789110121,0.6889489258972797,0.0025,0.0,0.0,0.0,0.0025,0.0,0.0,0.0,0.0025,0.0,-0.04,-0.06,0.02,0.0,0.0,0.0,0.02,0.0,0.0,0.0,0.02,-1.173272578125,0.13406640625,9.982967656249999,0.04,0.0,0.0,0.0,0.04,0.0,0.0,0.0,0.04
1614383514.296981,374,1614383514,296036005,base_imu_link,0.0653086329972136,0.06246482740481548,-0.7197085415639998,0.6883694814510172,0.0025,0.0,0.0,0.0,0.0025,0.0,0.0,0.0,0.0025,0.05,-0.07,-0.04,0.02,0.0,0.0,0.0,0.02,0.0,0.0,0.0,0.02,-2.4323476562499997,-0.19152343749999998,9.298462890624998,0.04,0.0,0.0,0.0,0.04,0.0,0.0,0.0,0.04
1614383514.3167334,375,1614383514,316030979,base_imu_link,0.06760561405728122,0.06584743180155002,-0.7200978964550794,0.6874246258274777,0.0025,0.0,0.0,0.0,0.0025,0.0,0.0,0.0,0.0025,0.02,0.01,-0.08,0.02,0.0,0.0,0.0,0.02,0.0,0.0,0.0,0.02,-1.9585186718749998,0.522092890625,9.662357421874999,0.04,0.0,0.0,0.0,0.04,0.0,0.0,0.0,0.04
1614383514.336804,376,1614383514,336028099,base_imu_link,0.06950456737319563,0.06436020175597044,-0.72052730538881,0.686925965249048,0.0025,0.0,0.0,0.0,0.0025,0.0,0.0,0.0,0.0025,-0.03,-0.05,-0.1,0.02,0.0,0.0,0.0,0.02,0.0,0.0,0.0,0.02,-1.1874453125,0.502940546875,9.82974890625,0.04,0.0,0.0,0.0,0.04,0.0,0.0,0.0,0.04
1614383514.3567433,377,1614383514,355670928,base_imu_link,0.06790685418027284,0.059735448044114944,-0.7214868950565835,0.6864961730875989,0.0025,0.0,0.0,0.0,0.0025,0.0,0.0,0.0,0.0025,-0.01,-0.11,-0.09,0.02,0.0,0.0,0.0,0.02,0.0,0.0,0.0,0.02,-1.618373046875,0.0383046875,9.135667968749999,0.04,0.0,0.0,0.0,0.04,0.0,0.0,0.0,0.04
1614383514.3771458,378,1614383514,376173019,base_imu_link,0.06770384920076408,0.05994594409549087,-0.7218852359633319,0.6860789886653467,0.0025,0.0,0.0,0.0,0.0025,0.0,0.0,0.0,0.0025,0.0,-0.0,-0.06,0.02,0.0,0.0,0.0,0.02,0.0,0.0,0.0,0.02,-2.7292089843749996,-0.464635859375,9.853880859375,0.04,0.0,0.0,0.0,0.04,0.0,0.0,0.0,0.04
1614383514.3974798,379,1614383514,396359920,base_imu_link,0.06899501187364236,0.06476661274474314,-0.7220934993118274,0.6852926035364225,0.0025,0.0,0.0,0.0,0.0025,0.0,0.0,0.0,0.0025,-0.0,-0.03,-0.04,0.02,0.0,0.0,0.0,0.02,0.0,0.0,0.0,0.02,-2.2216718749999997,-0.38304687499999995,10.198623046875,0.04,0.0,0.0,0.0,0.04,0.0,0.0,0.0,0.04
1614383514.417302,380,1614383514,416332960,base_imu_link,0.0679735109756845,0.06597023273321118,-0.7225171489584449,0.6848331911200893,0.0025,0.0,0.0,0.0,0.0025,0.0,0.0,0.0,0.0025,0.03,-0.14,-0.05,0.02,0.0,0.0,0.0,0.02,0.0,0.0,0.0,0.02,-0.9147159374999999,-0.21565539062499997,9.269734374999999,0.04,0.0,0.0,0.0,0.04,0.0,0.0,0.0,0.04
1614383514.4373085,381,1614383514,436405897,base_imu_link,0.0647477455230743,0.06381711500250534,-0.7230332623396796,0.6848050867457662,0.0025,0.0,0.0,0.0,0.0025,0.0,0.0,0.0,0.0025,0.04,-0.02,-0.06,0.02,0.0,0.0,0.0,0.02,0.0,0.0,0.0,0.02,-2.1404659374999997,-0.30184093749999996,9.360899531249999,0.04,0.0,0.0,0.0,0.04,0.0,0.0,0.0,0.04
1614383514.4577627,382,1614383514,456814050,base_imu_link,0.06581901963283406,0.06622928657198521,-0.7236280170011051,0.6838450345405652,0.0025,0.0,0.0,0.0,0.0025,0.0,0.0,0.0,0.0025,0.04,0.01,-0.08,0.02,0.0,0.0,0.0,0.02,0.0,0.0,0.0,0.02,-2.4131953124999996,-0.009576171875,10.164914921874999,0.04,0.0,0.0,0.0,0.04,0.0,0.0,0.0,0.04
1614383514.4773345,383,1614383514,476221084,base_imu_link,0.06661220627516497,0.06691008045784802,-0.7239123734844144,0.6834008564703743,0.0025,0.0,0.0,0.0,0.0025,0.0,0.0,0.0,0.0025,-0.0,-0.14,-0.09,0.02,0.0,0.0,0.0,0.02,0.0,0.0,0.0,0.02,-0.8810078124999999,0.076609375,9.24598546875,0.04,0.0,0.0,0.0,0.04,0.0,0.0,0.0,0.04
1614383514.4973989,384,1614383514,496210098,base_imu_link,0.06417735477588782,0.06366946129444241,-0.7248255603072977,0.6829753831271353,0.0025,0.0,0.0,0.0,0.0025,0.0,0.0,0.0,0.0025,0.02,-0.03,-0.09,0.02,0.0,0.0,0.0,0.02,0.0,0.0,0.0,0.02,-2.35114171875,0.335166015625,9.097363281249999,0.04,0.0,0.0,0.0,0.04,0.0,0.0,0.0,0.04
1614383514.5183792,385,1614383514,517061948,base_imu_link,0.06786089330307615,0.0645753021029227,-0.725015489070614,0.6823323751121027,0.0025,0.0,0.0,0.0,0.0025,0.0,0.0,0.0,0.0025,0.02,-0.01,-0.09,0.02,0.0,0.0,0.0,0.02,0.0,0.0,0.0,0.02,-2.3174335937499997,0.028728515625,10.471352421874998,0.04,0.0,0.0,0.0,0.04,0.0,0.0,0.0,0.04
1614383514.5374002,386,1614383514,536611080,base_imu_link,0.06841441570016266,0.06525541020208062,-0.7253606351879278,0.6818453989604456,0.0025,0.0,0.0,0.0,0.0025,0.0,0.0,0.0,0.0025,-0.01,-0.08,-0.08,0.02,0.0,0.0,0.0,0.02,0.0,0.0,0.0,0.02,-1.106239375,-0.17696765625,9.9638153125,0.04,0.0,0.0,0.0,0.04,0.0,0.0,0.0,0.04
1614383514.5593295,387,1614383514,558248996,base_imu_link,0.0646297453441902,0.06268588340961112,-0.7260949706270228,0.6816740934405859,0.0025,0.0,0.0,0.0,0.0025,0.0,0.0,0.0,0.0025,0.02,-0.09,-0.06,0.02,0.0,0.0,0.0,0.02,0.0,0.0,0.0,0.02,-1.5704921875,-0.201099609375,8.70971984375,0.04,0.0,0.0,0.0,0.04,0.0,0.0,0.0,0.04
1614383514.5775542,388,1614383514,576927900,base_imu_link,0.06544881687933018,0.06397360966209746,-0.7263836669831426,0.681168553278864,0.0025,0.0,0.0,0.0,0.0025,0.0,0.0,0.0,0.0025,0.05,0.13,-0.08,0.02,0.0,0.0,0.0,0.02,0.0,0.0,0.0,0.02,-2.27912890625,-0.181947265625,10.25110046875,0.04,0.0,0.0,0.0,0.04,0.0,0.0,0.0,0.04
1614383514.5982034,389,1614383514,596857070,base_imu_link,0.06498530369575241,0.06396113358770038,-0.7266822551044919,0.680895574820396,0.0025,0.0,0.0,0.0,0.0025,0.0,0.0,0.0,0.0025,0.05,-0.23,-0.07,0.02,0.0,0.0,0.0,0.02,0.0,0.0,0.0,0.02,-1.7478428906249999,-0.033708125,9.5041590625,0.04,0.0,0.0,0.0,0.04,0.0,0.0,0.0,0.04
1614383514.617526,390,1614383514,616801977,base_imu_link,0.06553215479338302,0.06439624268156577,-0.7270503269681947,0.6804090554012888,0.0025,0.0,0.0,0.0,0.0025,0.0,0.0,0.0,0.0025,0.02,0.05,-0.06,0.02,0.0,0.0,0.0,0.02,0.0,0.0,0.0,0.02,-1.5417636718749999,-0.6894843749999999,9.6956825,0.04,0.0,0.0,0.0,0.04,0.0,0.0,0.0,0.04
1614383514.637542,391,1614383514,636555910,base_imu_link,0.06278497446031346,0.06619622562261643,-0.7277192746587942,0.6797799379103624,0.0025,0.0,0.0,0.0,0.0025,0.0,0.0,0.0,0.0025,0.03,0.02,-0.07,0.02,0.0,0.0,0.0,0.02,0.0,0.0,0.0,0.02,-2.9494609374999996,0.24438390624999998,9.470833984375,0.04,0.0,0.0,0.0,0.04,0.0,0.0,0.0,0.04
1614383514.6571934,392,1614383514,656264066,base_imu_link,0.06785081047443638,0.06828312576417579,-0.7275983080826088,0.6792160071208281,0.0025,0.0,0.0,0.0,0.0025,0.0,0.0,0.0,0.0025,0.03,-0.11,-0.08,0.02,0.0,0.0,0.0,0.02,0.0,0.0,0.0,0.02,-0.42633117187499997,0.13406640625,9.03990625,0.04,0.0,0.0,0.0,0.04,0.0,0.0,0.0,0.04
1614383514.6780527,393,1614383514,676991939,base_imu_link,0.0656259413601152,0.0639191172442913,-0.7282122129070433,0.6792014099251682,0.0025,0.0,0.0,0.0,0.0025,0.0,0.0,0.0,0.0025,0.1,0.08,-0.09,0.02,0.0,0.0,0.0,0.02,0.0,0.0,0.0,0.02,-3.7442832031249997,0.11989367187499998,9.643205078125,0.04,0.0,0.0,0.0,0.04,0.0,0.0,0.0,0.04
1614383514.6976986,394,1614383514,696824073,base_imu_link,0.07247301835538723,0.0688046882630821,-0.7280417424126513,0.6782099953467441,0.0025,0.0,0.0,0.0,0.0025,0.0,0.0,0.0,0.0025,0.05,-0.08,-0.09,0.02,0.0,0.0,0.0,0.02,0.0,0.0,0.0,0.02,-3.0452226562499995,0.10074132812499999,9.523311406249999,0.04,0.0,0.0,0.0,0.04,0.0,0.0,0.0,0.04
1614383514.7178297,395,1614383514,716751098,base_imu_link,0.07741383627635885,0.07228785112016972,-0.7278778682144323,0.6774772125297047,0.0025,0.0,0.0,0.0,0.0025,0.0,0.0,0.0,0.0025,0.05,0.03,-0.1,0.02,0.0,0.0,0.0,0.02,0.0,0.0,0.0,0.02,-3.3949444531249995,0.253960078125,9.116515625,0.04,0.0,0.0,0.0,0.04,0.0,0.0,0.0,0.04
1614383514.738591,396,1614383514,737514972,base_imu_link,0.08351770371741479,0.07591460068391823,-0.727608657711573,0.6766442254183024,0.0025,0.0,0.0,0.0,0.0025,0.0,0.0,0.0,0.0025,0.03,-0.06,-0.08,0.02,0.0,0.0,0.0,0.02,0.0,0.0,0.0,0.02,-4.467475703124999,0.10533789062499999,9.312635624999999,0.04,0.0,0.0,0.0,0.04,0.0,0.0,0.0,0.04
1614383514.757364,397,1614383514,756433010,base_imu_link,0.09112119646371972,0.08237021879703235,-0.7273699505504675,0.6751629652510271,0.0025,0.0,0.0,0.0,0.0025,0.0,0.0,0.0,0.0025,0.02,-0.08,-0.08,0.02,0.0,0.0,0.0,0.02,0.0,0.0,0.0,0.02,-3.437845703125,0.139046015625,9.087787109374998,0.04,0.0,0.0,0.0,0.04,0.0,0.0,0.0,0.04
1614383514.7780216,398,1614383514,776951074,base_imu_link,0.09583076142647054,0.08569323069276075,-0.7273179618968945,0.6741525922816048,0.0025,0.0,0.0,0.0,0.0025,0.0,0.0,0.0,0.0025,0.04,-0.04,-0.08,0.02,0.0,0.0,0.0,0.02,0.0,0.0,0.0,0.02,-3.7301104687499995,0.009576171875,9.399204218749999,0.04,0.0,0.0,0.0,0.04,0.0,0.0,0.0,0.04
1614383514.7983785,399,1614383514,797041893,base_imu_link,0.09962180193975416,0.08961963165161474,-0.7270014529837249,0.6734335197779053,0.0025,0.0,0.0,0.0,0.0025,0.0,0.0,0.0,0.0025,0.01,-0.07,-0.07,0.02,0.0,0.0,0.0,0.02,0.0,0.0,0.0,0.02,-3.8354483593749995,0.330569453125,9.25058203125,0.04,0.0,0.0,0.0,0.04,0.0,0.0,0.0,0.04
1614383514.8177524,400,1614383514,817079067,base_imu_link,0.10477355856952521,0.09257945959806886,-0.7267203100786693,0.6725541881546574,0.0025,0.0,0.0,0.0,0.0025,0.0,0.0,0.0,0.0025,-0.0,-0.07,-0.06,0.02,0.0,0.0,0.0,0.02,0.0,0.0,0.0,0.02,-2.848719609375,-0.11031749999999999,9.3846484375,0.04,0.0,0.0,0.0,0.04,0.0,0.0,0.0,0.04
1614383514.8387055,401,1614383514,837604045,base_imu_link,0.10466953820680089,0.09357863887773321,-0.7272732402963887,0.6718340271720071,0.0025,0.0,0.0,0.0,0.0025,0.0,0.0,0.0,0.0025,0.01,-0.05,-0.05,0.02,0.0,0.0,0.0,0.02,0.0,0.0,0.0,0.02,-3.2558984374999995,0.27311242187499996,9.298462890624998,0.04,0.0,0.0,0.0,0.04,0.0,0.0,0.0,0.04
1614383514.8586204,402,1614383514,857142925,base_imu_link,0.106995978844327,0.09436854602958644,-0.7273663817348108,0.6712559755811605,0.0025,0.0,0.0,0.0,0.0025,0.0,0.0,0.0,0.0025,-0.01,-0.08,-0.05,0.02,0.0,0.0,0.0,0.02,0.0,0.0,0.0,0.02,-3.00691796875,-0.009576171875,9.37009265625,0.04,0.0,0.0,0.0,0.04,0.0,0.0,0.0,0.04
1614383514.8780253,403,1614383514,877028942,base_imu_link,0.10778765245538399,0.09541494515310073,-0.728126327370234,0.6701565948417749,0.0025,0.0,0.0,0.0,0.0025,0.0,0.0,0.0,0.0025,0.01,-0.03,-0.04,0.02,0.0,0.0,0.0,0.02,0.0,0.0,0.0,0.02,-2.7579374999999997,-0.181947265625,9.494965937499998,0.04,0.0,0.0,0.0,0.04,0.0,0.0,0.0,0.04
1614383514.8979464,404,1614383514,896867990,base_imu_link,0.10665289415953871,0.09562387040566944,-0.7290257931756056,0.6693299847315322,0.0025,0.0,0.0,0.0,0.0025,0.0,0.0,0.0,0.0025,0.02,-0.07,-0.04,0.02,0.0,0.0,0.0,0.02,0.0,0.0,0.0,0.02,-3.2321495312499997,0.17696765625,9.427549687499999,0.04,0.0,0.0,0.0,0.04,0.0,0.0,0.0,0.04
