Time,header.seq,header.stamp.secs,header.stamp.nsecs,header.frame_id,orientation.x,orientation.y,orientation.z,orientation.w,orientation_covariance_0,orientation_covariance_1,orientation_covariance_2,orientation_covariance_3,orientation_covariance_4,orientation_covariance_5,orientation_covariance_6,orientation_covariance_7,orientation_covariance_8,angular_velocity.x,angular_velocity.y,angular_velocity.z,angular_velocity_covariance_0,angular_velocity_covariance_1,angular_velocity_covariance_2,angular_velocity_covariance_3,angular_velocity_covariance_4,angular_velocity_covariance_5,angular_velocity_covariance_6,angular_velocity_covariance_7,angular_velocity_covariance_8,linear_acceleration.x,linear_acceleration.y,linear_acceleration.z,linear_acceleration_covariance_0,linear_acceleration_covariance_1,linear_acceleration_covariance_2,linear_acceleration_covariance_3,linear_acceleration_covariance_4,linear_acceleration_covariance_5,linear_acceleration_covariance_6,linear_acceleration_covariance_7,linear_acceleration_covariance_8
1614726917.924929,8823,1614726917,924383640,base_imu_link,-0.04101481353193767,0.059222816058565435,0.5864431397254602,0.806780569298727,0.0025,0.0,0.0,0.0,0.0025,0.0,0.0,0.0,0.0025,0.01,-0.04,0.03,0.02,0.0,0.0,0.0,0.02,0.0,0.0,0.0,0.02,-1.388544921875,0.090782109375,9.8443046875,0.04,0.0,0.0,0.0,0.04,0.0,0.0,0.0,0.04
1614726917.9448676,8824,1614726917,944382429,base_imu_link,-0.04054905071064486,0.05913180023877789,0.5867193402990414,0.8066099555584747,0.0025,0.0,0.0,0.0,0.0025,0.0,0.0,0.0,0.0025,0.01,-0.05,0.04,0.02,0.0,0.0,0.0,0.02,0.0,0.0,0.0,0.02,-1.364796015625,0.05286046874999999,9.782251093749998,0.04,0.0,0.0,0.0,0.04,0.0,0.0,0.0,0.04
1614726917.964872,8825,1614726917,964409351,base_imu_link,-0.04036983779581429,0.058832686675583876,0.5870864917292627,0.8063736369722776,0.0025,0.0,0.0,0.0,0.0025,0.0,0.0,0.0,0.0025,0.0,-0.03,0.04,0.02,0.0,0.0,0.0,0.02,0.0,0.0,0.0,0.02,-1.3743721875,0.01915234375,9.6956825,0.04,0.0,0.0,0.0,0.04,0.0,0.0,0.0,0.04
1614726917.9851105,8826,1614726917,984654426,base_imu_link,-0.040460723150715555,0.058767333614120475,0.5873730641093867,0.8061651282093255,0.0025,0.0,0.0,0.0,0.0025,0.0,0.0,0.0,0.0025,0.0,-0.01,0.03,0.02,0.0,0.0,0.0,0.02,0.0,0.0,0.0,0.02,-1.383948359375,0.004979609375,9.67653015625,0.04,0.0,0.0,0.0,0.04,0.0,0.0,0.0,0.04
1614726918.005125,8827,1614726918,4674673,base_imu_link,-0.04064903453157256,0.05884610951889912,0.5875816215796703,0.805997909034475,0.0025,0.0,0.0,0.0,0.0025,0.0,0.0,0.0,0.0025,0.02,-0.01,0.02,0.02,0.0,0.0,0.0,0.02,0.0,0.0,0.0,0.02,-1.39352453125,0.004979609375,9.758119140624999,0.04,0.0,0.0,0.0,0.04,0.0,0.0,0.0,0.04
1614726918.0253158,8828,1614726918,24726629,base_imu_link,-0.04064903453157256,0.05884610951889912,0.5875816215796703,0.805997909034475,0.0025,0.0,0.0,0.0,0.0025,0.0,0.0,0.0,0.0025,0.02,-0.02,0.02,0.02,0.0,0.0,0.0,0.02,0.0,0.0,0.0,0.02,-1.403100703125,0.01915234375,9.825152343749998,0.04,0.0,0.0,0.0,0.04,0.0,0.0,0.0,0.04
1614726918.0452025,8829,1614726918,44754028,base_imu_link,-0.04061678191332347,0.05865418534203032,0.5875943435511132,0.8060042499860683,0.0025,0.0,0.0,0.0,0.0025,0.0,0.0,0.0,0.0025,0.01,-0.03,0.02,0.02,0.0,0.0,0.0,0.02,0.0,0.0,0.0,0.02,-1.407697265625,0.023748906249999997,9.74854296875,0.04,0.0,0.0,0.0,0.04,0.0,0.0,0.0,0.04
1614726918.065242,8830,1614726918,64794540,base_imu_link,-0.040707572692957786,0.058588701785188144,0.5878807713732825,0.8057955424288026,0.0025,0.0,0.0,0.0,0.0025,0.0,0.0,0.0,0.0025,0.01,-0.03,0.02,0.02,0.0,0.0,0.0,0.02,0.0,0.0,0.0,0.02,-1.403100703125,0.023748906249999997,9.66733703125,0.04,0.0,0.0,0.0,0.04,0.0,0.0,0.0,0.04
1614726918.085291,8831,1614726918,84804773,base_imu_link,-0.04078299966092034,0.058533840521586125,0.5879561983412451,0.8057406811652005,0.0025,0.0,0.0,0.0,0.0025,0.0,0.0,0.0,0.0025,0.0,-0.03,0.02,0.02,0.0,0.0,0.0,0.02,0.0,0.0,0.0,0.02,-1.388544921875,0.004979609375,9.609879999999999,0.04,0.0,0.0,0.0,0.04,0.0,0.0,0.0,0.04
1614726918.105452,8832,1614726918,105022192,base_imu_link,-0.04093382486581132,0.05842407850509254,0.5881070235461361,0.805630919148707,0.0025,0.0,0.0,0.0,0.0025,0.0,0.0,0.0,0.0025,0.0,-0.02,0.02,0.02,0.0,0.0,0.0,0.02,0.0,0.0,0.0,0.02,-1.3743721875,-0.028728515625,9.638225468749999,0.04,0.0,0.0,0.0,0.04,0.0,0.0,0.0,0.04
1614726918.1255658,8833,1614726918,125250577,base_imu_link,-0.041331595132652624,0.058241365664738254,0.5880584150444764,0.8056593219622515,0.0025,0.0,0.0,0.0,0.0025,0.0,0.0,0.0,0.0025,-0.0,-0.02,0.01,0.02,0.0,0.0,0.0,0.02,0.0,0.0,0.0,0.02,-1.3693925781249998,-0.04290125,9.71023828125,0.04,0.0,0.0,0.0,0.04,0.0,0.0,0.0,0.04
1614726918.1455367,8834,1614726918,145099401,base_imu_link,-0.04161788521113852,0.058032459385260866,0.5881490128257759,0.8055935228142762,0.0025,0.0,0.0,0.0,0.0025,0.0,0.0,0.0,0.0025,0.0,-0.01,0.01,0.02,0.0,0.0,0.0,0.02,0.0,0.0,0.0,0.02,-1.383948359375,-0.023748906249999997,9.74854296875,0.04,0.0,0.0,0.0,0.04,0.0,0.0,0.0,0.04
1614726918.1657577,8835,1614726918,165312051,base_imu_link,-0.04189023136760423,0.05794146756254848,0.5883010748173737,0.80547491594797,0.0025,0.0,0.0,0.0,0.0025,0.0,0.0,0.0,0.0025,0.01,-0.01,0.01,0.02,0.0,0.0,0.0,0.02,0.0,0.0,0.0,0.02,-1.388544921875,-0.004979609375,9.810596562499999,0.04,0.0,0.0,0.0,0.04,0.0,0.0,0.0,0.04
1614726918.1859343,8836,1614726918,185490608,base_imu_link,-0.04191422553529088,0.05781618198143672,0.5883801140593923,0.8054249364020976,0.0025,0.0,0.0,0.0,0.0025,0.0,0.0,0.0,0.0025,0.01,-0.02,0.01,0.02,0.0,0.0,0.0,0.02,0.0,0.0,0.0,0.02,-1.364796015625,-0.009576171875,9.806,0.04,0.0,0.0,0.0,0.04,0.0,0.0,0.0,0.04
1614726918.2056162,8837,1614726918,205135107,base_imu_link,-0.041850553959997955,0.057539373892293355,0.5886773166514773,0.8052308789690947,0.0025,0.0,0.0,0.0,0.0025,0.0,0.0,0.0,0.0025,0.0,-0.03,0.01,0.02,0.0,0.0,0.0,0.02,0.0,0.0,0.0,0.02,-1.3598164062499998,0.0,9.758119140624999,0.04,0.0,0.0,0.0,0.04,0.0,0.0,0.0,0.04
1614726918.2261717,8838,1614726918,225768566,base_imu_link,-0.041964746603657184,0.057348055096621275,0.5890423035679253,0.8049716300755684,0.0025,0.0,0.0,0.0,0.0025,0.0,0.0,0.0,0.0025,-0.01,-0.02,0.01,0.02,0.0,0.0,0.0,0.02,0.0,0.0,0.0,0.02,-1.3693925781249998,-0.01915234375,9.729390624999999,0.04,0.0,0.0,0.0,0.04,0.0,0.0,0.0,0.04
1614726918.2461326,8839,1614726918,245724439,base_imu_link,-0.042124083756361876,0.057123594017963325,0.5890609385485758,0.8049656310988866,0.0025,0.0,0.0,0.0,0.0025,0.0,0.0,0.0,0.0025,-0.01,-0.02,0.01,0.02,0.0,0.0,0.0,0.02,0.0,0.0,0.0,0.02,-1.364796015625,-0.004979609375,9.705641718749998,0.04,0.0,0.0,0.0,0.04,0.0,0.0,0.0,0.04
1614726918.2660515,8840,1614726918,265617370,base_imu_link,-0.04232095970224119,0.057087338471806935,0.5891375134829605,0.8049018339916993,0.0025,0.0,0.0,0.0,0.0025,0.0,0.0,0.0,0.0025,-0.01,-0.01,0.01,0.02,0.0,0.0,0.0,0.02,0.0,0.0,0.0,0.02,-1.364796015625,0.004979609375,9.76309875,0.04,0.0,0.0,0.0,0.04,0.0,0.0,0.0,0.04
1614726918.2859387,8841,1614726918,285520076,base_imu_link,-0.04226457612034282,0.05702078261971758,0.589070899524576,0.8049582667990369,0.0025,0.0,0.0,0.0,0.0025,0.0,0.0,0.0,0.0025,0.0,-0.02,0.01,0.02,0.0,0.0,0.0,0.02,0.0,0.0,0.0,0.02,-1.350240234375,0.014555781249999998,9.82974890625,0.04,0.0,0.0,0.0,0.04,0.0,0.0,0.0,0.04
1614726918.3059485,8842,1614726918,305543899,base_imu_link,-0.04206886878258984,0.05673244140344288,0.5892258577909724,0.804875474146312,0.0025,0.0,0.0,0.0,0.0025,0.0,0.0,0.0,0.0025,0.0,-0.03,0.02,0.02,0.0,0.0,0.0,0.02,0.0,0.0,0.0,0.02,-1.3693925781249998,0.009576171875,9.743946406249998,0.04,0.0,0.0,0.0,0.04,0.0,0.0,0.0,0.04
1614726918.326415,8843,1614726918,325976610,base_imu_link,-0.04208371985917055,0.056721425855285904,0.5894365535024998,0.8047211875965817,0.0025,0.0,0.0,0.0,0.0025,0.0,0.0,0.0,0.0025,-0.01,-0.02,0.02,0.02,0.0,0.0,0.0,0.02,0.0,0.0,0.0,0.02,-1.35521984375,-0.004979609375,9.6573778125,0.04,0.0,0.0,0.0,0.04,0.0,0.0,0.0,0.04
1614726918.3461905,8844,1614726918,345756530,base_imu_link,-0.04228549564497977,0.056681398321153625,0.5895832822874802,0.804605934100376,0.0025,0.0,0.0,0.0,0.0025,0.0,0.0,0.0,0.0025,-0.0,-0.01,0.01,0.02,0.0,0.0,0.0,0.02,0.0,0.0,0.0,0.02,-1.350240234375,0.0,9.66733703125,0.04,0.0,0.0,0.0,0.04,0.0,0.0,0.0,0.04
1614726918.36625,8845,1614726918,365805625,base_imu_link,-0.04233694024981002,0.05675161767480436,0.5895796757235707,0.8046009217961823,0.0025,0.0,0.0,0.0,0.0025,0.0,0.0,0.0,0.0025,0.0,-0.0,0.01,0.02,0.0,0.0,0.0,0.02,0.0,0.0,0.0,0.02,-1.364796015625,0.023748906249999997,9.71023828125,0.04,0.0,0.0,0.0,0.04,0.0,0.0,0.0,0.04
1614726918.3864937,8846,1614726918,386072397,base_imu_link,-0.042323133101999165,0.05686959342387332,0.5896413160999823,0.8045481465369954,0.0025,0.0,0.0,0.0,0.0025,0.0,0.0,0.0,0.0025,-0.0,-0.01,0.01,0.02,0.0,0.0,0.0,0.02,0.0,0.0,0.0,0.02,-1.364796015625,0.033708125,9.75313953125,0.04,0.0,0.0,0.0,0.04,0.0,0.0,0.0,0.04
1614726918.406558,8847,1614726918,406111240,base_imu_link,-0.042267823317851505,0.05690998537925596,0.5898469620159716,0.8043974428580889,0.0025,0.0,0.0,0.0,0.0025,0.0,0.0,0.0,0.0025,-0.0,-0.01,0.01,0.02,0.0,0.0,0.0,0.02,0.0,0.0,0.0,0.02,-1.3693925781249998,0.047880859374999994,9.782251093749998,0.04,0.0,0.0,0.0,0.04,0.0,0.0,0.0,0.04
1614726918.4262974,8848,1614726918,425858974,base_imu_link,-0.04213737882821149,0.05700557873594014,0.5899774065056117,0.804301849501405,0.0025,0.0,0.0,0.0,0.0025,0.0,0.0,0.0,0.0025,0.0,-0.01,0.01,0.02,0.0,0.0,0.0,0.02,0.0,0.0,0.0,0.02,-1.364796015625,0.04290125,9.82974890625,0.04,0.0,0.0,0.0,0.04,0.0,0.0,0.0,0.04
1614726918.4463515,8849,1614726918,445917129,base_imu_link,-0.04189900464111785,0.05696451160647904,0.5900449323840512,0.8042676765825041,0.0025,0.0,0.0,0.0,0.0025,0.0,0.0,0.0,0.0025,0.01,-0.02,0.01,0.02,0.0,0.0,0.0,0.02,0.0,0.0,0.0,0.02,-1.345643671875,0.028728515625,9.8014034375,0.04,0.0,0.0,0.0,0.04,0.0,0.0,0.0,0.04
1614726918.4661965,8850,1614726918,465793132,base_imu_link,-0.041660617579741106,0.056923485589700173,0.590112469835374,0.8042334130561777,0.0025,0.0,0.0,0.0,0.0025,0.0,0.0,0.0,0.0025,0.01,-0.02,0.01,0.02,0.0,0.0,0.0,0.02,0.0,0.0,0.0,0.02,-1.3406640625,0.0,9.743946406249998,0.04,0.0,0.0,0.0,0.04,0.0,0.0,0.0,0.04
1614726918.4864948,8851,1614726918,486054420,base_imu_link,-0.04159423394140875,0.056864194697137896,0.5899055460791559,0.8043928329922677,0.0025,0.0,0.0,0.0,0.0025,0.0,0.0,0.0,0.0025,0.01,-0.02,0.0,0.02,0.0,0.0,0.0,0.02,0.0,0.0,0.0,0.02,-1.3360675,-0.01915234375,9.681509765625,0.04,0.0,0.0,0.0,0.04,0.0,0.0,0.0,0.04
1614726918.506636,8852,1614726918,506278038,base_imu_link,-0.041697987462925315,0.05668012459283505,0.5901296580311861,0.8042360524309252,0.0025,0.0,0.0,0.0,0.0025,0.0,0.0,0.0,0.0025,0.01,-0.01,0.0,0.02,0.0,0.0,0.0,0.02,0.0,0.0,0.0,0.02,-1.3310878906249999,-0.023748906249999997,9.648184687499999,0.04,0.0,0.0,0.0,0.04,0.0,0.0,0.0,0.04
1614726918.5266674,8853,1614726918,526227951,base_imu_link,-0.041796717226079104,0.05649964831521288,0.5902835099562489,0.8041307120382304,0.0025,0.0,0.0,0.0,0.0025,0.0,0.0,0.0,0.0025,0.0,-0.01,-0.0,0.02,0.0,0.0,0.0,0.02,0.0,0.0,0.0,0.02,-1.3406640625,-0.004979609375,9.66733703125,0.04,0.0,0.0,0.0,0.04,0.0,0.0,0.0,0.04
1614726918.5466368,8854,1614726918,546227693,base_imu_link,-0.0418668907095473,0.05644813614629871,0.5902884382330562,0.8041270615246716,0.0025,0.0,0.0,0.0,0.0025,0.0,0.0,0.0,0.0025,0.01,-0.01,0.0,0.02,0.0,0.0,0.0,0.02,0.0,0.0,0.0,0.02,-1.350240234375,0.004979609375,9.729390624999999,0.04,0.0,0.0,0.0,0.04,0.0,0.0,0.0,0.04
1614726918.5666316,8855,1614726918,566215515,base_imu_link,-0.04191839948241263,0.056518311788986864,0.5902848314010652,0.8041220964724023,0.0025,0.0,0.0,0.0,0.0025,0.0,0.0,0.0,0.0025,0.0,-0.01,0.0,0.02,0.0,0.0,0.0,0.02,0.0,0.0,0.0,0.02,-1.35521984375,0.014555781249999998,9.76309875,0.04,0.0,0.0,0.0,0.04,0.0,0.0,0.0,0.04
1614726918.5869663,8856,1614726918,586458683,base_imu_link,-0.04197978385093165,0.056581161008606266,0.5904215559966696,0.8040140895414823,0.0025,0.0,0.0,0.0,0.0025,0.0,0.0,0.0,0.0025,-0.0,-0.0,0.01,0.02,0.0,0.0,0.0,0.02,0.0,0.0,0.0,0.02,-1.3743721875,0.009576171875,9.772291874999999,0.04,0.0,0.0,0.0,0.04,0.0,0.0,0.0,0.04
1614726918.6069577,8857,1614726918,606501340,base_imu_link,-0.042091587932664806,0.0566071501284444,0.5902825464046553,0.8041084778745206,0.0025,0.0,0.0,0.0,0.0025,0.0,0.0,0.0,0.0025,-0.0,-0.01,0.01,0.02,0.0,0.0,0.0,0.02,0.0,0.0,0.0,0.02,-1.39812109375,0.004979609375,9.758119140624999,0.04,0.0,0.0,0.0,0.04,0.0,0.0,0.0,0.04
1614726918.6270635,8858,1614726918,626605987,base_imu_link,-0.04218469741996566,0.05675486251088057,0.5901349628693782,0.8042015061438984,0.0025,0.0,0.0,0.0,0.0025,0.0,0.0,0.0,0.0025,0.0,-0.01,0.01,0.02,0.0,0.0,0.0,0.02,0.0,0.0,0.0,0.02,-1.412676875,-0.004979609375,9.7247940625,0.04,0.0,0.0,0.0,0.04,0.0,0.0,0.0,0.04
1614726918.6470423,8859,1614726918,646587848,base_imu_link,-0.04239445678756299,0.056925012118451475,0.5899184965927609,0.804337255389018,0.0025,0.0,0.0,0.0,0.0025,0.0,0.0,0.0,0.0025,0.0,-0.01,0.01,0.02,0.0,0.0,0.0,0.02,0.0,0.0,0.0,0.02,-1.407697265625,-0.009576171875,9.719814453124998,0.04,0.0,0.0,0.0,0.04,0.0,0.0,0.0,0.04
1614726918.6670952,8860,1614726918,666639804,base_imu_link,-0.04262903253989648,0.05707667800630363,0.5900529528944918,0.8042154755990263,0.0025,0.0,0.0,0.0,0.0025,0.0,0.0,0.0,0.0025,0.0,-0.01,0.01,0.02,0.0,0.0,0.0,0.02,0.0,0.0,0.0,0.02,-1.403100703125,0.009576171875,9.729390624999999,0.04,0.0,0.0,0.0,0.04,0.0,0.0,0.0,0.04
1614726918.6871314,8861,1614726918,686590194,base_imu_link,-0.042661822989577075,0.05726853918175396,0.590040679851783,0.8042091017883594,0.0025,0.0,0.0,0.0,0.0025,0.0,0.0,0.0,0.0025,0.01,-0.01,0.01,0.02,0.0,0.0,0.0,0.02,0.0,0.0,0.0,0.02,-1.388544921875,0.033708125,9.76309875,0.04,0.0,0.0,0.0,0.04,0.0,0.0,0.0,0.04
1614726918.7071536,8862,1614726918,706651449,base_imu_link,-0.0424977493503018,0.05749690152048423,0.589951813428429,0.8042666880135041,0.0025,0.0,0.0,0.0,0.0025,0.0,0.0,0.0,0.0025,0.01,-0.01,0.02,0.02,0.0,0.0,0.0,0.02,0.0,0.0,0.0,0.02,-1.3743721875,0.0,9.743946406249998,0.04,0.0,0.0,0.0,0.04,0.0,0.0,0.0,0.04
1614726918.7273102,8863,1614726918,726898431,base_imu_link,-0.04255425307621338,0.057563375402580406,0.5900183221252837,0.8042101546945625,0.0025,0.0,0.0,0.0,0.0025,0.0,0.0,0.0,0.0025,0.01,-0.0,0.02,0.02,0.0,0.0,0.0,0.02,0.0,0.0,0.0,0.02,-1.3693925781249998,-0.009576171875,9.738966796875,0.04,0.0,0.0,0.0,0.04,0.0,0.0,0.0,0.04
1614726918.7471578,8864,1614726918,746759176,base_imu_link,-0.04267089391479189,0.05758579294055216,0.5899494882403847,0.8042528660743639,0.0025,0.0,0.0,0.0,0.0025,0.0,0.0,0.0,0.0025,0.01,-0.0,0.01,0.02,0.0,0.0,0.0,0.02,0.0,0.0,0.0,0.02,-1.3743721875,0.014555781249999998,9.78684765625,0.04,0.0,0.0,0.0,0.04,0.0,0.0,0.0,0.04
1614726918.7672465,8865,1614726918,766781806,base_imu_link,-0.042559276266319106,0.057559661624265505,0.5900885004539583,0.8041586628205817,0.0025,0.0,0.0,0.0,0.0025,0.0,0.0,0.0,0.0025,0.01,-0.01,0.02,0.02,0.0,0.0,0.0,0.02,0.0,0.0,0.0,0.02,-1.3598164062499998,0.0383046875,9.853880859375,0.04,0.0,0.0,0.0,0.04,0.0,0.0,0.0,0.04
1614726918.7870288,8866,1614726918,786597013,base_imu_link,-0.04219928223339873,0.05749992896419237,0.590154653923219,0.8041333615768372,0.0025,0.0,0.0,0.0,0.0025,0.0,0.0,0.0,0.0025,0.01,-0.02,0.02,0.02,0.0,0.0,0.0,0.02,0.0,0.0,0.0,0.02,-1.3598164062499998,0.04290125,9.820555781249999,0.04,0.0,0.0,0.0,0.04,0.0,0.0,0.0,0.04
1614726918.807053,8867,1614726918,806616067,base_imu_link,-0.0419008102030184,0.05750311479105042,0.590357480068884,0.8039998505101698,0.0025,0.0,0.0,0.0,0.0025,0.0,0.0,0.0,0.0025,0.01,-0.02,0.02,0.02,0.0,0.0,0.0,0.02,0.0,0.0,0.0,0.02,-1.326491328125,0.023748906249999997,9.738966796875,0.04,0.0,0.0,0.0,0.04,0.0,0.0,0.0,0.04
1614726918.8274765,8868,1614726918,827071905,base_imu_link,-0.04161456258664132,0.057281253559425586,0.590226883791504,0.8041264277594374,0.0025,0.0,0.0,0.0,0.0025,0.0,0.0,0.0,0.0025,0.01,-0.02,0.02,0.02,0.0,0.0,0.0,0.02,0.0,0.0,0.0,0.02,-1.3310878906249999,-0.033708125,9.71483484375,0.04,0.0,0.0,0.0,0.04,0.0,0.0,0.0,0.04
1614726918.8474948,8869,1614726918,847060680,base_imu_link,-0.04173200731633913,0.05697910359536659,0.5903895124956927,0.8040224156414519,0.0025,0.0,0.0,0.0,0.0025,0.0,0.0,0.0,0.0025,0.0,-0.02,0.02,0.02,0.0,0.0,0.0,0.02,0.0,0.0,0.0,0.02,-1.3310878906249999,-0.028728515625,9.772291874999999,0.04,0.0,0.0,0.0,0.04,0.0,0.0,0.0,0.04
1614726918.8675747,8870,1614726918,867139816,base_imu_link,-0.0417227148626511,0.056661925018547464,0.5904805160208267,0.8039784832428419,0.0025,0.0,0.0,0.0,0.0025,0.0,0.0,0.0,0.0025,0.0,-0.02,0.01,0.02,0.0,0.0,0.0,0.02,0.0,0.0,0.0,0.02,-1.3406640625,0.014555781249999998,9.76309875,0.04,0.0,0.0,0.0,0.04,0.0,0.0,0.0,0.04
1614726918.8876126,8871,1614726918,887169837,base_imu_link,-0.04161965766355723,0.056521602170962255,0.5904877645240337,0.8039883783559344,0.0025,0.0,0.0,0.0,0.0025,0.0,0.0,0.0,0.0025,0.01,-0.02,0.01,0.02,0.0,0.0,0.0,0.02,0.0,0.0,0.0,0.02,-1.345643671875,0.01915234375,9.729390624999999,0.04,0.0,0.0,0.0,0.04,0.0,0.0,0.0,0.04
1614726918.907415,8872,1614726918,907000064,base_imu_link,-0.041471056466902134,0.056414718005147656,0.5908408283703733,0.8037441424971816,0.0025,0.0,0.0,0.0,0.0025,0.0,0.0,0.0,0.0025,0.01,-0.03,0.02,0.02,0.0,0.0,0.0,0.02,0.0,0.0,0.0,0.02,-1.350240234375,0.014555781249999998,9.729390624999999,0.04,0.0,0.0,0.0,0.04,0.0,0.0,0.0,0.04
1614726918.9274766,8873,1614726918,927038431,base_imu_link,-0.04133951161210316,0.05640335453726344,0.5906992356076284,0.8038557827304473,0.0025,0.0,0.0,0.0,0.0025,0.0,0.0,0.0,0.0025,0.01,-0.02,0.02,0.02,0.0,0.0,0.0,0.02,0.0,0.0,0.0,0.02,-1.3693925781249998,0.004979609375,9.767695312499999,0.04,0.0,0.0,0.0,0.04,0.0,0.0,0.0,0.04
1614726918.9475453,8874,1614726918,947073221,base_imu_link,-0.04137284537123958,0.05627082708271738,0.5909181959525688,0.8037024122008568,0.0025,0.0,0.0,0.0,0.0025,0.0,0.0,0.0,0.0025,0.0,-0.03,0.02,0.02,0.0,0.0,0.0,0.02,0.0,0.0,0.0,0.02,-1.3743721875,0.009576171875,9.78684765625,0.04,0.0,0.0,0.0,0.04,0.0,0.0,0.0,0.04
1614726918.9676726,8875,1614726918,967239141,base_imu_link,-0.0413359897632899,0.05618987079095337,0.5911321939956695,0.80355258918919,0.0025,0.0,0.0,0.0,0.0025,0.0,0.0,0.0,0.0025,0.0,-0.03,0.02,0.02,0.0,0.0,0.0,0.02,0.0,0.0,0.0,0.02,-1.3598164062499998,0.01915234375,9.76309875,0.04,0.0,0.0,0.0,0.04,0.0,0.0,0.0,0.04
1614726918.9877427,8876,1614726918,987302064,base_imu_link,-0.04134579611617271,0.05618265544395993,0.591272431375442,0.8034494049199105,0.0025,0.0,0.0,0.0,0.0025,0.0,0.0,0.0,0.0025,0.0,-0.02,0.02,0.02,0.0,0.0,0.0,0.02,0.0,0.0,0.0,0.02,-1.345643671875,-0.009576171875,9.719814453124998,0.04,0.0,0.0,0.0,0.04,0.0,0.0,0.0,0.04
1614726919.0081487,8877,1614726919,7713556,base_imu_link,-0.04136920424560547,0.05605733233023216,0.5913510437657287,0.803399096009752,0.0025,0.0,0.0,0.0,0.0025,0.0,0.0,0.0,0.0025,0.0,-0.02,0.02,0.02,0.0,0.0,0.0,0.02,0.0,0.0,0.0,0.02,-1.3406640625,-0.033708125,9.743946406249998,0.04,0.0,0.0,0.0,0.04,0.0,0.0,0.0,0.04
1614726919.028255,8878,1614726919,27747631,base_imu_link,-0.04158928841313542,0.055895257220920494,0.5915059079670965,0.8032850130243419,0.0025,0.0,0.0,0.0,0.0025,0.0,0.0,0.0,0.0025,0.0,-0.02,0.02,0.02,0.0,0.0,0.0,0.02,0.0,0.0,0.0,0.02,-1.350240234375,-0.04290125,9.767695312499999,0.04,0.0,0.0,0.0,0.04,0.0,0.0,0.0,0.04
1614726919.048209,8879,1614726919,47775983,base_imu_link,-0.041673010138189484,0.05572555278767385,0.5914491185547536,0.8033342785872736,0.0025,0.0,0.0,0.0,0.0025,0.0,0.0,0.0,0.0025,0.01,-0.02,0.02,0.02,0.0,0.0,0.0,0.02,0.0,0.0,0.0,0.02,-1.350240234375,-0.0383046875,9.76309875,0.04,0.0,0.0,0.0,0.04,0.0,0.0,0.0,0.04
1614726919.0682614,8880,1614726919,67798852,base_imu_link,-0.0418881704297956,0.05556705464173618,0.591533788135635,0.8032717230865235,0.0025,0.0,0.0,0.0,0.0025,0.0,0.0,0.0,0.0025,0.0,-0.02,0.02,0.02,0.0,0.0,0.0,0.02,0.0,0.0,0.0,0.02,-1.345643671875,-0.033708125,9.743946406249998,0.04,0.0,0.0,0.0,0.04,0.0,0.0,0.0,0.04
1614726919.0885053,8881,1614726919,88046073,base_imu_link,-0.042173393559527546,0.05535688690371199,0.5916232438070911,0.8032054266096427,0.0025,0.0,0.0,0.0,0.0025,0.0,0.0,0.0,0.0025,-0.02,-0.01,0.01,0.02,0.0,0.0,0.0,0.02,0.0,0.0,0.0,0.02,-1.3360675,-0.067033203125,9.743946406249998,0.04,0.0,0.0,0.0,0.04,0.0,0.0,0.0,0.04
1614726919.108408,8882,1614726919,107989788,base_imu_link,-0.04264075010498399,0.055120930131611644,0.5915785679021833,0.8032298845851742,0.0025,0.0,0.0,0.0,0.0025,0.0,0.0,0.0,0.0025,-0.01,-0.01,0.01,0.02,0.0,0.0,0.0,0.02,0.0,0.0,0.0,0.02,-1.350240234375,-0.0720128125,9.719814453124998,0.04,0.0,0.0,0.0,0.04,0.0,0.0,0.0,0.04
1614726919.1284056,8883,1614726919,127975940,base_imu_link,-0.04285583026321988,0.05496231367008131,0.5916630700560922,0.8031670644518992,0.0025,0.0,0.0,0.0,0.0025,0.0,0.0,0.0,0.0025,0.0,-0.02,0.01,0.02,0.0,0.0,0.0,0.02,0.0,0.0,0.0,0.02,-1.3693925781249998,-0.06243664062499999,9.67653015625,0.04,0.0,0.0,0.0,0.04,0.0,0.0,0.0,0.04
1614726919.1484818,8884,1614726919,148039340,base_imu_link,-0.042977532594841876,0.05498078460309912,0.5916643973094249,0.8031583193698252,0.0025,0.0,0.0,0.0,0.0025,0.0,0.0,0.0,0.0025,0.01,-0.02,0.01,0.02,0.0,0.0,0.0,0.02,0.0,0.0,0.0,0.02,-1.3598164062499998,-0.0383046875,9.6956825,0.04,0.0,0.0,0.0,0.04,0.0,0.0,0.0,0.04
1614726919.1687145,8885,1614726919,168276548,base_imu_link,-0.0431645260055237,0.054951389544453555,0.591600435179305,0.8031974188065529,0.0025,0.0,0.0,0.0,0.0025,0.0,0.0,0.0,0.0025,-0.01,-0.01,0.01,0.02,0.0,0.0,0.0,0.02,0.0,0.0,0.0,0.02,-1.345643671875,-0.04290125,9.719814453124998,0.04,0.0,0.0,0.0,0.04,0.0,0.0,0.0,0.04
1614726919.1886725,8886,1614726919,188353776,base_imu_link,-0.04335631416231462,0.05491824331362741,0.5916065660332481,0.8031848402453522,0.0025,0.0,0.0,0.0,0.0025,0.0,0.0,0.0,0.0025,-0.01,-0.01,0.01,0.02,0.0,0.0,0.0,0.02,0.0,0.0,0.0,0.02,-1.3360675,-0.04290125,9.839708125,0.04,0.0,0.0,0.0,0.04,0.0,0.0,0.0,0.04
1614726919.2085648,8887,1614726919,208135366,base_imu_link,-0.04320149991359792,0.054707916980759254,0.5916169054036561,0.8031999199859543,0.0025,0.0,0.0,0.0,0.0025,0.0,0.0,0.0,0.0025,0.01,-0.02,0.01,0.02,0.0,0.0,0.0,0.02,0.0,0.0,0.0,0.02,-1.350240234375,-0.014555781249999998,9.839708125,0.04,0.0,0.0,0.0,0.04,0.0,0.0,0.0,0.04
1614726919.228428,8888,1614726919,227997303,base_imu_link,-0.04300970814228273,0.05474106376551483,0.5916107977424615,0.8032124531765328,0.0025,0.0,0.0,0.0,0.0025,0.0,0.0,0.0,0.0025,0.01,-0.02,0.01,0.02,0.0,0.0,0.0,0.02,0.0,0.0,0.0,0.02,-1.350240234375,0.014555781249999998,9.78684765625,0.04,0.0,0.0,0.0,0.04,0.0,0.0,0.0,0.04
1614726919.2486746,8889,1614726919,248245477,base_imu_link,-0.04286062646672118,0.05495857358409623,0.5917331573517087,0.8031154290505566,0.0025,0.0,0.0,0.0,0.0025,0.0,0.0,0.0,0.0025,0.01,-0.01,0.01,0.02,0.0,0.0,0.0,0.02,0.0,0.0,0.0,0.02,-1.35521984375,-0.009576171875,9.78684765625,0.04,0.0,0.0,0.0,0.04,0.0,0.0,0.0,0.04
1614726919.268705,8890,1614726919,268273830,base_imu_link,-0.042593945137200384,0.0550471061235912,0.5916521475055365,0.8031832345717594,0.0025,0.0,0.0,0.0,0.0025,0.0,0.0,0.0,0.0025,0.01,-0.02,0.01,0.02,0.0,0.0,0.0,0.02,0.0,0.0,0.0,0.02,-1.350240234375,-0.009576171875,9.820555781249999,0.04,0.0,0.0,0.0,0.04,0.0,0.0,0.0,0.04
1614726919.2887645,8891,1614726919,288290977,base_imu_link,-0.04223841713674509,0.054984319401809395,0.5917883818737756,0.8031059405937182,0.0025,0.0,0.0,0.0,0.0025,0.0,0.0,0.0,0.0025,0.03,-0.04,0.01,0.02,0.0,0.0,0.0,0.02,0.0,0.0,0.0,0.02,-1.3119355468749998,-0.0383046875,9.834728515624999,0.04,0.0,0.0,0.0,0.04,0.0,0.0,0.0,0.04
1614726919.308771,8892,1614726919,308326721,base_imu_link,-0.041914950259406766,0.05468183003371045,0.5918710913692772,0.803082589532519,0.0025,0.0,0.0,0.0,0.0025,0.0,0.0,0.0,0.0025,0.02,-0.04,0.0,0.02,0.0,0.0,0.0,0.02,0.0,0.0,0.0,0.02,-1.27861046875,-0.047880859374999994,9.78684765625,0.04,0.0,0.0,0.0,0.04,0.0,0.0,0.0,0.04
1614726919.3288214,8893,1614726919,328381776,base_imu_link,-0.04162356267758221,0.05413952645814693,0.591900027733115,0.803113160068026,0.0025,0.0,0.0,0.0,0.0025,0.0,0.0,0.0,0.0025,0.02,-0.04,0.0,0.02,0.0,0.0,0.0,0.02,0.0,0.0,0.0,0.02,-1.249881953125,-0.05286046874999999,9.719814453124998,0.04,0.0,0.0,0.0,0.04,0.0,0.0,0.0,0.04
1614726919.3488622,8894,1614726919,348381042,base_imu_link,-0.04150084876098222,0.05368935972771435,0.5918564448140636,0.8031818479872433,0.0025,0.0,0.0,0.0,0.0025,0.0,0.0,0.0,0.0025,0.01,-0.03,-0.01,0.02,0.0,0.0,0.0,0.02,0.0,0.0,0.0,0.02,-1.2544785156249998,-0.067033203125,9.700662109375,0.04,0.0,0.0,0.0,0.04,0.0,0.0,0.0,0.04
1614726919.3689058,8895,1614726919,368427038,base_imu_link,-0.04141588397828373,0.053320107481529336,0.5915989233930387,0.80340052559894,0.0025,0.0,0.0,0.0,0.0025,0.0,0.0,0.0,0.0025,0.01,-0.02,-0.01,0.02,0.0,0.0,0.0,0.02,0.0,0.0,0.0,0.02,-1.288186640625,-0.05745703125,9.705641718749998,0.04,0.0,0.0,0.0,0.04,0.0,0.0,0.0,0.04
1614726919.3888092,8896,1614726919,388437032,base_imu_link,-0.04142509832183617,0.0532055887798852,0.59146670622565,0.8035049856585785,0.0025,0.0,0.0,0.0,0.0025,0.0,0.0,0.0,0.0025,0.01,-0.02,-0.01,0.02,0.0,0.0,0.0,0.02,0.0,0.0,0.0,0.02,-1.3215117187499998,-0.01915234375,9.758119140624999,0.04,0.0,0.0,0.0,0.04,0.0,0.0,0.0,0.04
1614726919.4087143,8897,1614726919,408277511,base_imu_link,-0.041411167711809485,0.053216432021814725,0.5912563288454696,0.8036598037427216,0.0025,0.0,0.0,0.0,0.0025,0.0,0.0,0.0,0.0025,0.01,-0.02,-0.01,0.02,0.0,0.0,0.0,0.02,0.0,0.0,0.0,0.02,-1.326491328125,0.0,9.82974890625,0.04,0.0,0.0,0.0,0.04,0.0,0.0,0.0,0.04
1614726919.429148,8898,1614726919,428729534,base_imu_link,-0.041139884330094495,0.0533082571731815,0.5911054725711666,0.8037786137556051,0.0025,0.0,0.0,0.0,0.0025,0.0,0.0,0.0,0.0025,0.02,-0.03,0.0,0.02,0.0,0.0,0.0,0.02,0.0,0.0,0.0,0.02,-1.326491328125,-0.014555781249999998,9.8443046875,0.04,0.0,0.0,0.0,0.04,0.0,0.0,0.0,0.04
1614726919.449201,8899,1614726919,448743343,base_imu_link,-0.04088720213320096,0.053385717877779945,0.5912351616564971,0.8036909763394189,0.0025,0.0,0.0,0.0,0.0025,0.0,0.0,0.0,0.0025,0.02,-0.04,0.01,0.02,0.0,0.0,0.0,0.02,0.0,0.0,0.0,0.02,-1.326491328125,-0.033708125,9.810596562499999,0.04,0.0,0.0,0.0,0.04,0.0,0.0,0.0,0.04
1614726919.4690955,8900,1614726919,468744039,base_imu_link,-0.040713899996311725,0.05329702371484032,0.5912372727715287,0.8037041078008218,0.0025,0.0,0.0,0.0,0.0025,0.0,0.0,0.0,0.0025,0.02,-0.04,0.02,0.02,0.0,0.0,0.0,0.02,0.0,0.0,0.0,0.02,-1.3406640625,-0.047880859374999994,9.743946406249998,0.04,0.0,0.0,0.0,0.04,0.0,0.0,0.0,0.04
1614726919.4892385,8901,1614726919,488751173,base_imu_link,-0.04091969795574859,0.053253266879196355,0.5914535801332955,0.8035373858342939,0.0025,0.0,0.0,0.0,0.0025,0.0,0.0,0.0,0.0025,0.01,-0.03,0.02,0.02,0.0,0.0,0.0,0.02,0.0,0.0,0.0,0.02,-1.3693925781249998,-0.05286046874999999,9.662357421874999,0.04,0.0,0.0,0.0,0.04,0.0,0.0,0.0,0.04
1614726919.5094638,8902,1614726919,509063005,base_imu_link,-0.041322606034234474,0.05349708775898862,0.5915161119277519,0.8034545370845333,0.0025,0.0,0.0,0.0,0.0025,0.0,0.0,0.0,0.0025,0.0,-0.02,0.01,0.02,0.0,0.0,0.0,0.02,0.0,0.0,0.0,0.02,-1.3693925781249998,-0.01915234375,9.67193359375,0.04,0.0,0.0,0.0,0.04,0.0,0.0,0.0,0.04
1614726919.5295715,8903,1614726919,529112339,base_imu_link,-0.04149147756793036,0.05369660217447439,0.59171625412289,0.8032851341901713,0.0025,0.0,0.0,0.0,0.0025,0.0,0.0,0.0,0.0025,0.0,-0.02,0.02,0.02,0.0,0.0,0.0,0.02,0.0,0.0,0.0,0.02,-1.345643671875,-0.009576171875,9.71023828125,0.04,0.0,0.0,0.0,0.04,0.0,0.0,0.0,0.04
1614726919.5497563,8904,1614726919,549344062,base_imu_link,-0.04160411661678127,0.053829562650244064,0.591849632963824,0.8031721407182941,0.0025,0.0,0.0,0.0,0.0025,0.0,0.0,0.0,0.0025,-0.0,-0.02,0.02,0.02,0.0,0.0,0.0,0.02,0.0,0.0,0.0,0.02,-1.3310878906249999,-0.009576171875,9.719814453124998,0.04,0.0,0.0,0.0,0.04,0.0,0.0,0.0,0.04
1614726919.5697503,8905,1614726919,569300651,base_imu_link,-0.04173053844504176,0.053844373494213005,0.591921008653317,0.8031119879063833,0.0025,0.0,0.0,0.0,0.0025,0.0,0.0,0.0,0.0025,-0.01,-0.02,0.02,0.02,0.0,0.0,0.0,0.02,0.0,0.0,0.0,0.02,-1.345643671875,-0.023748906249999997,9.71483484375,0.04,0.0,0.0,0.0,0.04,0.0,0.0,0.0,0.04
1614726919.5898213,8906,1614726919,589404582,base_imu_link,-0.041983386340836315,0.05387392954183264,0.592063751702175,0.8029915995248162,0.0025,0.0,0.0,0.0,0.0025,0.0,0.0,0.0,0.0025,-0.01,-0.01,0.02,0.02,0.0,0.0,0.0,0.02,0.0,0.0,0.0,0.02,-1.350240234375,-0.01915234375,9.74854296875,0.04,0.0,0.0,0.0,0.04,0.0,0.0,0.0,0.04
1614726919.609946,8907,1614726919,609463691,base_imu_link,-0.0421145149088739,0.05388499976479709,0.592205185774282,0.8028796873606818,0.0025,0.0,0.0,0.0,0.0025,0.0,0.0,0.0,0.0025,-0.01,-0.02,0.02,0.02,0.0,0.0,0.0,0.02,0.0,0.0,0.0,0.02,-1.35521984375,-0.01915234375,9.777271484375,0.04,0.0,0.0,0.0,0.04,0.0,0.0,0.0,0.04
1614726919.6298375,8908,1614726919,629231929,base_imu_link,-0.04221312195204822,0.05402883906966855,0.5921282986257692,0.8029215496238704,0.0025,0.0,0.0,0.0,0.0025,0.0,0.0,0.0,0.0025,0.0,-0.02,0.01,0.02,0.0,0.0,0.0,0.02,0.0,0.0,0.0,0.02,-1.3310878906249999,-0.033708125,9.74854296875,0.04,0.0,0.0,0.0,0.04,0.0,0.0,0.0,0.04
1614726919.6499472,8909,1614726919,649396896,base_imu_link,-0.04221783669697055,0.05402515507411861,0.5921983644944036,0.8028698736246112,0.0025,0.0,0.0,0.0,0.0025,0.0,0.0,0.0,0.0025,0.01,-0.02,0.01,0.02,0.0,0.0,0.0,0.02,0.0,0.0,0.0,0.02,-1.288186640625,-0.06243664062499999,9.729390624999999,0.04,0.0,0.0,0.0,0.04,0.0,0.0,0.0,0.04
1614726919.6697915,8910,1614726919,669395446,base_imu_link,-0.042259336379684584,0.05377795202319318,0.5922846430336932,0.8028206412340121,0.0025,0.0,0.0,0.0,0.0025,0.0,0.0,0.0,0.0025,0.01,-0.01,0.01,0.02,0.0,0.0,0.0,0.02,0.0,0.0,0.0,0.02,-1.27861046875,-0.033708125,9.729390624999999,0.04,0.0,0.0,0.0,0.04,0.0,0.0,0.0,0.04
1614726919.6898324,8911,1614726919,689345121,base_imu_link,-0.042099996887588795,0.05367846996343704,0.5924969008134361,0.8026790358860275,0.0025,0.0,0.0,0.0,0.0025,0.0,0.0,0.0,0.0025,0.01,-0.01,0.01,0.02,0.0,0.0,0.0,0.02,0.0,0.0,0.0,0.02,-1.28320703125,-0.01915234375,9.691085937499999,0.04,0.0,0.0,0.0,0.04,0.0,0.0,0.0,0.04
1614726919.7098467,8912,1614726919,709415435,base_imu_link,-0.04199699164807213,0.05364545736871207,0.5927757655115371,0.8024807221475321,0.0025,0.0,0.0,0.0,0.0025,0.0,0.0,0.0,0.0025,0.01,-0.0,0.01,0.02,0.0,0.0,0.0,0.02,0.0,0.0,0.0,0.02,-1.288186640625,0.004979609375,9.67653015625,0.04,0.0,0.0,0.0,0.04,0.0,0.0,0.0,0.04
1614726919.7300448,8913,1614726919,729560613,base_imu_link,-0.041903946730537024,0.05382261486503564,0.5926929509704879,0.8025348909844288,0.0025,0.0,0.0,0.0,0.0025,0.0,0.0,0.0,0.0025,0.01,-0.0,0.01,0.02,0.0,0.0,0.0,0.02,0.0,0.0,0.0,0.02,-1.27861046875,-0.009576171875,9.719814453124998,0.04,0.0,0.0,0.0,0.04,0.0,0.0,0.0,0.04
1614726919.7498357,8914,1614726919,749419212,base_imu_link,-0.04177281484199931,0.05381158180237279,0.5925515887054642,0.8026468465811929,0.0025,0.0,0.0,0.0,0.0025,0.0,0.0,0.0,0.0025,0.0,-0.0,0.01,0.02,0.0,0.0,0.0,0.02,0.0,0.0,0.0,0.02,-1.2640546874999998,0.0,9.74854296875,0.04,0.0,0.0,0.0,0.04,0.0,0.0,0.0,0.04
1614726919.7701902,8915,1614726919,769752264,base_imu_link,-0.04161773133899019,0.053601412397599725,0.5925618076118211,0.8026614212649,0.0025,0.0,0.0,0.0,0.0025,0.0,0.0,0.0,0.0025,-0.0,-0.01,0.01,0.02,0.0,0.0,0.0,0.02,0.0,0.0,0.0,0.02,-1.269034296875,-0.014555781249999998,9.772291874999999,0.04,0.0,0.0,0.0,0.04,0.0,0.0,0.0,0.04
1614726919.7899776,8916,1614726919,789604425,base_imu_link,-0.04152833546374361,0.05345042715824536,0.5927787161480731,0.8025159455562575,0.0025,0.0,0.0,0.0,0.0025,0.0,0.0,0.0,0.0025,0.0,-0.01,0.01,0.02,0.0,0.0,0.0,0.02,0.0,0.0,0.0,0.02,-1.2736308593749999,-0.014555781249999998,9.825152343749998,0.04,0.0,0.0,0.0,0.04,0.0,0.0,0.0,0.04
1614726919.8100832,8917,1614726919,809657812,base_imu_link,-0.04132640714422352,0.05327399565784301,0.593134337897988,0.8022753060299895,0.0025,0.0,0.0,0.0,0.0025,0.0,0.0,0.0,0.0025,0.01,-0.01,0.01,0.02,0.0,0.0,0.0,0.02,0.0,0.0,0.0,0.02,-1.2640546874999998,-0.05286046874999999,9.882609375,0.04,0.0,0.0,0.0,0.04,0.0,0.0,0.0,0.04
1614726919.8301036,8918,1614726919,829704523,base_imu_link,-0.041180193604578245,0.05294932755841789,0.5930124346547877,0.8023944246507462,0.0025,0.0,0.0,0.0,0.0025,0.0,0.0,0.0,0.0025,0.01,-0.02,0.01,0.02,0.0,0.0,0.0,0.02,0.0,0.0,0.0,0.02,-1.259458125,-0.0383046875,9.892185546875,0.04,0.0,0.0,0.0,0.04,0.0,0.0,0.0,0.04
1614726919.8501909,8919,1614726919,849754810,base_imu_link,-0.04089402702898751,0.052728078942446625,0.5928811884892844,0.8025206069503295,0.0025,0.0,0.0,0.0,0.0025,0.0,0.0,0.0,0.0025,0.02,-0.03,0.01,0.02,0.0,0.0,0.0,0.02,0.0,0.0,0.0,0.02,-1.2640546874999998,-0.0720128125,9.825152343749998,0.04,0.0,0.0,0.0,0.04,0.0,0.0,0.0,0.04
1614726919.8702378,8920,1614726919,869822978,base_imu_link,-0.04081346643902283,0.052462643971208534,0.5929658267130719,0.8024795700173708,0.0025,0.0,0.0,0.0,0.0025,0.0,0.0,0.0,0.0025,0.02,-0.02,0.01,0.02,0.0,0.0,0.0,0.02,0.0,0.0,0.0,0.02,-1.269034296875,-0.05286046874999999,9.691085937499999,0.04,0.0,0.0,0.0,0.04,0.0,0.0,0.0,0.04
1614726919.8902998,8921,1614726919,889977693,base_imu_link,-0.04087892196759718,0.05241446529986146,0.5929003711844976,0.8025277486887178,0.0025,0.0,0.0,0.0,0.0025,0.0,0.0,0.0,0.0025,0.01,-0.01,0.01,0.02,0.0,0.0,0.0,0.02,0.0,0.0,0.0,0.02,-1.288186640625,-0.05286046874999999,9.63362890625,0.04,0.0,0.0,0.0,0.04,0.0,0.0,0.0,0.04
1614726919.9103925,8922,1614726919,910054683,base_imu_link,-0.041178740245689634,0.05251752783500662,0.5929695875671183,0.8024545400471975,0.0025,0.0,0.0,0.0,0.0025,0.0,0.0,0.0,0.0025,0.01,-0.0,0.0,0.02,0.0,0.0,0.0,0.02,0.0,0.0,0.0,0.02,-1.2977628125,-0.023748906249999997,9.719814453124998,0.04,0.0,0.0,0.0,0.04,0.0,0.0,0.0,0.04
1614726919.9303336,8923,1614726919,929896593,base_imu_link,-0.041277600976362544,0.052661210687119646,0.5928929005217394,0.8024967071941927,0.0025,0.0,0.0,0.0,0.0025,0.0,0.0,0.0,0.0025,0.0,-0.0,0.01,0.02,0.0,0.0,0.0,0.02,0.0,0.0,0.0,0.02,-1.3169151562499999,0.009576171875,9.78684765625,0.04,0.0,0.0,0.0,0.04,0.0,0.0,0.0,0.04
1614726919.9504237,8924,1614726919,949982643,base_imu_link,-0.041180193604578245,0.05294932755841789,0.5930124346547877,0.8023944246507462,0.0025,0.0,0.0,0.0,0.0025,0.0,0.0,0.0,0.0025,0.01,-0.01,0.01,0.02,0.0,0.0,0.0,0.02,0.0,0.0,0.0,0.02,-1.3119355468749998,0.004979609375,9.86805359375,0.04,0.0,0.0,0.0,0.04,0.0,0.0,0.0,0.04
1614726919.9704258,8925,1614726919,970014572,base_imu_link,-0.04099765986766812,0.0529756390425358,0.5931465929151557,0.8023028685394018,0.0025,0.0,0.0,0.0,0.0025,0.0,0.0,0.0,0.0025,0.01,-0.02,0.01,0.02,0.0,0.0,0.0,0.02,0.0,0.0,0.0,0.02,-1.3119355468749998,0.004979609375,9.848901249999999,0.04,0.0,0.0,0.0,0.04,0.0,0.0,0.0,0.04
1614726919.9906523,8926,1614726919,990209102,base_imu_link,-0.040857630977406884,0.053079161845078646,0.593137337887817,0.8023100117610972,0.0025,0.0,0.0,0.0,0.0025,0.0,0.0,0.0,0.0025,0.01,-0.02,0.02,0.02,0.0,0.0,0.0,0.02,0.0,0.0,0.0,0.02,-1.307338984375,-0.04290125,9.729390624999999,0.04,0.0,0.0,0.0,0.04,0.0,0.0,0.0,0.04
1614726920.0106585,8927,1614726920,10250329,base_imu_link,-0.040956483333166864,0.053222783068293596,0.5930605482905658,0.802352221843212,0.0025,0.0,0.0,0.0,0.0025,0.0,0.0,0.0,0.0025,0.01,-0.01,0.01,0.02,0.0,0.0,0.0,0.02,0.0,0.0,0.0,0.02,-1.302359375,-0.067033203125,9.681509765625,0.04,0.0,0.0,0.0,0.04,0.0,0.0,0.0,0.04
1614726920.0308151,8928,1614726920,30372858,base_imu_link,-0.04114361875785604,0.05319289227211467,0.5929964278868607,0.8023920209976285,0.0025,0.0,0.0,0.0,0.0025,0.0,0.0,0.0,0.0025,0.02,-0.01,0.0,0.02,0.0,0.0,0.0,0.02,0.0,0.0,0.0,0.02,-1.292783203125,-0.04290125,9.691085937499999,0.04,0.0,0.0,0.0,0.04,0.0,0.0,0.0,0.04
1614726920.0507765,8929,1614726920,50359725,base_imu_link,-0.04121364051439458,0.053141143369040876,0.5930010675844357,0.8023884274842832,0.0025,0.0,0.0,0.0,0.0025,0.0,0.0,0.0,0.0025,0.01,-0.01,0.0,0.02,0.0,0.0,0.0,0.02,0.0,0.0,0.0,0.02,-1.288186640625,-0.014555781249999998,9.700662109375,0.04,0.0,0.0,0.0,0.04,0.0,0.0,0.0,0.04
1614726920.070737,8930,1614726920,70321083,base_imu_link,-0.04114826055673089,0.053189301611508165,0.5930664475420994,0.8023402692418159,0.0025,0.0,0.0,0.0,0.0025,0.0,0.0,0.0,0.0025,0.01,-0.01,0.01,0.02,0.0,0.0,0.0,0.02,0.0,0.0,0.0,0.02,-1.292783203125,-0.009576171875,9.7247940625,0.04,0.0,0.0,0.0,0.04,0.0,0.0,0.0,0.04
1614726920.0908134,8931,1614726920,90402364,base_imu_link,-0.04113433422016195,0.05320007237803924,0.5928563750291382,0.8024955061771656,0.0025,0.0,0.0,0.0,0.0025,0.0,0.0,0.0,0.0025,0.01,-0.01,0.01,0.02,0.0,0.0,0.0,0.02,0.0,0.0,0.0,0.02,-1.27861046875,-0.004979609375,9.782251093749998,0.04,0.0,0.0,0.0,0.04,0.0,0.0,0.0,0.04
1614726920.1107981,8932,1614726920,110448360,base_imu_link,-0.041003297474709065,0.053188924695815425,0.5927150435118931,0.8026073417808973,0.0025,0.0,0.0,0.0,0.0025,0.0,0.0,0.0,0.0025,0.0,-0.01,0.01,0.02,0.0,0.0,0.0,0.02,0.0,0.0,0.0,0.02,-1.2544785156249998,-0.014555781249999998,9.8443046875,0.04,0.0,0.0,0.0,0.04,0.0,0.0,0.0,0.04
1614726920.1309505,8933,1614726920,130538225,base_imu_link,-0.0408010680555228,0.0529051594067441,0.5927985779482119,0.80257470863232,0.0025,0.0,0.0,0.0,0.0025,0.0,0.0,0.0,0.0025,0.0,-0.02,0.01,0.02,0.0,0.0,0.0,0.02,0.0,0.0,0.0,0.02,-1.235326171875,-0.04290125,9.839708125,0.04,0.0,0.0,0.0,0.04,0.0,0.0,0.0,0.04
1614726920.1514301,8934,1614726920,150991201,base_imu_link,-0.04069170559727959,0.05244434891327608,0.5929645794811474,0.8024878708388016,0.0025,0.0,0.0,0.0,0.0025,0.0,0.0,0.0,0.0025,-0.0,-0.02,0.02,0.02,0.0,0.0,0.0,0.02,0.0,0.0,0.0,0.02,-1.235326171875,-0.047880859374999994,9.815576171875,0.04,0.0,0.0,0.0,0.04,0.0,0.0,0.0,0.04
1614726920.1712635,8935,1614726920,170826911,base_imu_link,-0.04062484120844053,0.05206068641602334,0.5929869626807062,0.8024997004967619,0.0025,0.0,0.0,0.0,0.0025,0.0,0.0,0.0,0.0025,0.0,-0.02,0.02,0.02,0.0,0.0,0.0,0.02,0.0,0.0,0.0,0.02,-1.230729609375,-0.05286046874999999,9.777271484375,0.04,0.0,0.0,0.0,0.04,0.0,0.0,0.0,0.04
1614726920.1914268,8936,1614726920,191012144,base_imu_link,-0.04068425207121429,0.05169175669906903,0.5930804279693099,0.8024514688643235,0.0025,0.0,0.0,0.0,0.0025,0.0,0.0,0.0,0.0025,-0.0,-0.02,0.02,0.02,0.0,0.0,0.0,0.02,0.0,0.0,0.0,0.02,-1.2211534375,-0.067033203125,9.700662109375,0.04,0.0,0.0,0.0,0.04,0.0,0.0,0.0,0.04
1614726920.2114596,8937,1614726920,211057424,base_imu_link,-0.04080467431389755,0.0512781629654052,0.5930381203458559,0.8025031566129098,0.0025,0.0,0.0,0.0,0.0025,0.0,0.0,0.0,0.0025,-0.01,-0.02,0.02,0.02,0.0,0.0,0.0,0.02,0.0,0.0,0.0,0.02,-1.230729609375,-0.05286046874999999,9.619073125,0.04,0.0,0.0,0.0,0.04,0.0,0.0,0.0,0.04
1614726920.231456,8938,1614726920,231046199,base_imu_link,-0.04104196983228985,0.05099393915924685,0.5931992403081355,0.8023900773184819,0.0025,0.0,0.0,0.0,0.0025,0.0,0.0,0.0,0.0025,-0.02,-0.01,0.02,0.02,0.0,0.0,0.0,0.02,0.0,0.0,0.0,0.02,-1.269034296875,-0.0720128125,9.59072765625,0.04,0.0,0.0,0.0,0.04,0.0,0.0,0.0,0.04
1614726920.2515512,8939,1614726920,251106023,base_imu_link,-0.0415517373511014,0.05094159915948679,0.5932819141165416,0.8023060369836387,0.0025,0.0,0.0,0.0,0.0025,0.0,0.0,0.0,0.0025,-0.02,-0.0,0.01,0.02,0.0,0.0,0.0,0.02,0.0,0.0,0.0,0.02,-1.2977628125,-0.08120593749999999,9.743946406249998,0.04,0.0,0.0,0.0,0.04,0.0,0.0,0.0,0.04
1614726920.2713058,8940,1614726920,270867347,base_imu_link,-0.04186526533663813,0.050926349084584654,0.5932888857170406,0.802285550544094,0.0025,0.0,0.0,0.0,0.0025,0.0,0.0,0.0,0.0025,-0.01,-0.01,-0.0,0.02,0.0,0.0,0.0,0.02,0.0,0.0,0.0,0.02,-1.326491328125,-0.05286046874999999,9.911337890625,0.04,0.0,0.0,0.0,0.04,0.0,0.0,0.0,0.04
1614726920.2911866,8941,1614726920,290776729,base_imu_link,-0.04197368128675679,0.05095560104971229,0.5930800987008019,0.8024323855166539,0.0025,0.0,0.0,0.0,0.0025,0.0,0.0,0.0,0.0025,0.0,-0.03,-0.0,0.02,0.0,0.0,0.0,0.02,0.0,0.0,0.0,0.02,-1.3406640625,-0.04290125,9.911337890625,0.04,0.0,0.0,0.0,0.04,0.0,0.0,0.0,0.04
1614726920.3112805,8942,1614726920,310904264,base_imu_link,-0.04189030056060051,0.051018325461160606,0.5928655521400682,0.8025912846970952,0.0025,0.0,0.0,0.0,0.0025,0.0,0.0,0.0,0.0025,0.01,-0.03,-0.0,0.02,0.0,0.0,0.0,0.02,0.0,0.0,0.0,0.02,-1.35521984375,-0.04290125,9.806,0.04,0.0,0.0,0.0,0.04,0.0,0.0,0.0,0.04
1614726920.3313196,8943,1614726920,330909729,base_imu_link,-0.041905339727622726,0.05133198350853421,0.5928470453465774,0.8025841705361658,0.0025,0.0,0.0,0.0,0.0025,0.0,0.0,0.0,0.0025,0.01,-0.03,-0.01,0.02,0.0,0.0,0.0,0.02,0.0,0.0,0.0,0.02,-1.35521984375,-0.0383046875,9.719814453124998,0.04,0.0,0.0,0.0,0.04,0.0,0.0,0.0,0.04
1614726920.3513803,8944,1614726920,350936889,base_imu_link,-0.0418593638239567,0.051690061909544505,0.5929639650292189,0.8024772067397731,0.0025,0.0,0.0,0.0,0.0025,0.0,0.0,0.0,0.0025,0.02,-0.03,-0.0,0.02,0.0,0.0,0.0,0.02,0.0,0.0,0.0,0.02,-1.35521984375,-0.01915234375,9.63362890625,0.04,0.0,0.0,0.0,0.04,0.0,0.0,0.0,0.04
1614726920.3714035,8945,1614726920,371054410,base_imu_link,-0.04188964538799128,0.05221016292300993,0.5926539287620032,0.8026709644803304,0.0025,0.0,0.0,0.0,0.0025,0.0,0.0,0.0,0.0025,0.02,-0.02,0.0,0.02,0.0,0.0,0.0,0.02,0.0,0.0,0.0,0.02,-1.3310878906249999,-0.004979609375,9.599920781249999,0.04,0.0,0.0,0.0,0.04,0.0,0.0,0.0,0.04
1614726920.3916001,8946,1614726920,391193151,base_imu_link,-0.04181623289856534,0.05259010803933096,0.5923501150761123,0.8028742269944283,0.0025,0.0,0.0,0.0,0.0025,0.0,0.0,0.0,0.0025,0.01,-0.01,0.01,0.02,0.0,0.0,0.0,0.02,0.0,0.0,0.0,0.02,-1.326491328125,0.014555781249999998,9.599920781249999,0.04,0.0,0.0,0.0,0.04,0.0,0.0,0.0,0.04
1614726920.4116337,8947,1614726920,411227703,base_imu_link,-0.041756549757114056,0.05306626011147147,0.5925285312038222,0.8027143341809742,0.0025,0.0,0.0,0.0,0.0025,0.0,0.0,0.0,0.0025,0.01,-0.01,0.02,0.02,0.0,0.0,0.0,0.02,0.0,0.0,0.0,0.02,-1.307338984375,0.023748906249999997,9.758119140624999,0.04,0.0,0.0,0.0,0.04,0.0,0.0,0.0,0.04
1614726920.4317503,8948,1614726920,431269645,base_imu_link,-0.0414719628811656,0.05338400190916995,0.5927120702584922,0.8025725053880411,0.0025,0.0,0.0,0.0,0.0025,0.0,0.0,0.0,0.0025,0.02,-0.01,0.02,0.02,0.0,0.0,0.0,0.02,0.0,0.0,0.0,0.02,-1.288186640625,0.004979609375,9.8780128125,0.04,0.0,0.0,0.0,0.04,0.0,0.0,0.0,0.04
1614726920.4518676,8949,1614726920,451454639,base_imu_link,-0.04103667878944282,0.05338074808131554,0.5927036131751873,0.8026013416742395,0.0025,0.0,0.0,0.0,0.0025,0.0,0.0,0.0,0.0025,0.02,-0.02,0.02,0.02,0.0,0.0,0.0,0.02,0.0,0.0,0.0,0.02,-1.269034296875,-0.004979609375,9.911337890625,0.04,0.0,0.0,0.0,0.04,0.0,0.0,0.0,0.04
1614726920.4722948,8950,1614726920,471666097,base_imu_link,-0.04064758530973314,0.05323444301625049,0.5931234214694037,0.8023206807690214,0.0025,0.0,0.0,0.0,0.0025,0.0,0.0,0.0,0.0025,0.02,-0.02,0.02,0.02,0.0,0.0,0.0,0.02,0.0,0.0,0.0,0.02,-1.24490234375,-0.01915234375,9.86805359375,0.04,0.0,0.0,0.0,0.04,0.0,0.0,0.0,0.04
1614726920.491933,8951,1614726920,491500377,base_imu_link,-0.04032369480352586,0.05304027957053249,0.5934777694300244,0.8020878166216183,0.0025,0.0,0.0,0.0,0.0025,0.0,0.0,0.0,0.0025,0.03,-0.02,0.02,0.02,0.0,0.0,0.0,0.02,0.0,0.0,0.0,0.02,-1.230729609375,-0.05286046874999999,9.815576171875,0.04,0.0,0.0,0.0,0.04,0.0,0.0,0.0,0.04
1614726920.5119348,8952,1614726920,511524438,base_imu_link,-0.04006017998642268,0.05269376363597185,0.5934246969357009,0.8021631245077919,0.0025,0.0,0.0,0.0,0.0025,0.0,0.0,0.0,0.0025,0.02,-0.02,0.01,0.02,0.0,0.0,0.0,0.02,0.0,0.0,0.0,0.02,-1.211577265625,-0.05286046874999999,9.8014034375,0.04,0.0,0.0,0.0,0.04,0.0,0.0,0.0,0.04
1614726920.5319512,8953,1614726920,531527280,base_imu_link,-0.03989861965163987,0.05216316954191616,0.5935939709200063,0.8020806079071191,0.0025,0.0,0.0,0.0,0.0025,0.0,0.0,0.0,0.0025,0.01,-0.03,0.01,0.02,0.0,0.0,0.0,0.02,0.0,0.0,0.0,0.02,-1.197021484375,-0.06243664062499999,9.796423828124999,0.04,0.0,0.0,0.0,0.04,0.0,0.0,0.0,0.04
1614726920.5520406,8954,1614726920,551620960,base_imu_link,-0.03986785325987258,0.05153593766460065,0.5936319263955926,0.8020945937788991,0.0025,0.0,0.0,0.0,0.0025,0.0,0.0,0.0,0.0025,0.0,-0.02,0.01,0.02,0.0,0.0,0.0,0.02,0.0,0.0,0.0,0.02,-1.197021484375,-0.08120593749999999,9.79144421875,0.04,0.0,0.0,0.0,0.04,0.0,0.0,0.0,0.04
1614726920.5720048,8955,1614726920,571478605,base_imu_link,-0.039861757280079735,0.051107453237252465,0.5935184208701141,0.8022063030280878,0.0025,0.0,0.0,0.0,0.0025,0.0,0.0,0.0,0.0025,0.01,-0.02,-0.0,0.02,0.0,0.0,0.0,0.02,0.0,0.0,0.0,0.02,-1.2065976562499998,-0.08618554687499999,9.815576171875,0.04,0.0,0.0,0.0,0.04,0.0,0.0,0.0,0.04
1614726920.591875,8956,1614726920,591474771,base_imu_link,-0.039982019913390905,0.05069370669861409,0.5934758622365367,0.8022580551963312,0.0025,0.0,0.0,0.0,0.0025,0.0,0.0,0.0,0.0025,0.01,-0.02,-0.01,0.02,0.0,0.0,0.0,0.02,0.0,0.0,0.0,0.02,-1.2161738281249999,-0.067033203125,9.858860468749999,0.04,0.0,0.0,0.0,0.04,0.0,0.0,0.0,0.04
1614726920.6121674,8957,1614726920,611701965,base_imu_link,-0.03982296143133953,0.05037919795002898,0.5931429411845112,0.8025319429653487,0.0025,0.0,0.0,0.0,0.0025,0.0,0.0,0.0,0.0025,0.01,-0.03,-0.01,0.02,0.0,0.0,0.0,0.02,0.0,0.0,0.0,0.02,-1.230729609375,-0.033708125,9.848901249999999,0.04,0.0,0.0,0.0,0.04,0.0,0.0,0.0,0.04
1614726920.6322365,8958,1614726920,631796121,base_imu_link,-0.03961161642945938,0.05010245957782847,0.5930855943439813,0.8026021063825736,0.0025,0.0,0.0,0.0,0.0025,0.0,0.0,0.0,0.0025,0.01,-0.03,-0.01,0.02,0.0,0.0,0.0,0.02,0.0,0.0,0.0,0.02,-1.2211534375,-0.0383046875,9.815576171875,0.04,0.0,0.0,0.0,0.04,0.0,0.0,0.0,0.04
1614726920.6523278,8959,1614726920,651854038,base_imu_link,-0.03944333880933497,0.049902623479630245,0.5928849194162255,0.8027710903627747,0.0025,0.0,0.0,0.0,0.0025,0.0,0.0,0.0,0.0025,0.01,-0.03,-0.01,0.02,0.0,0.0,0.0,0.02,0.0,0.0,0.0,0.02,-1.235326171875,-0.04290125,9.74854296875,0.04,0.0,0.0,0.0,0.04,0.0,0.0,0.0,0.04
1614726920.6723614,8960,1614726920,671839475,base_imu_link,-0.03944769348456585,0.04989918120896849,0.5929549721519314,0.8027193483364683,0.0025,0.0,0.0,0.0,0.0025,0.0,0.0,0.0,0.0025,0.01,-0.02,-0.01,0.02,0.0,0.0,0.0,0.02,0.0,0.0,0.0,0.02,-1.249881953125,-0.04290125,9.719814453124998,0.04,0.0,0.0,0.0,0.04,0.0,0.0,0.0,0.04
1614726920.6924257,8961,1614726920,691815614,base_imu_link,-0.03942500418900117,0.05002443059071468,0.5928774053554631,0.8027699593331492,0.0025,0.0,0.0,0.0,0.0025,0.0,0.0,0.0,0.0025,0.01,-0.02,-0.01,0.02,0.0,0.0,0.0,0.02,0.0,0.0,0.0,0.02,-1.2640546874999998,-0.014555781249999998,9.743946406249998,0.04,0.0,0.0,0.0,0.04,0.0,0.0,0.0,0.04
1614726920.7123306,8962,1614726920,711874008,base_imu_link,-0.03940229353164229,0.050149675078219144,0.5927998129824197,0.802820559703103,0.0025,0.0,0.0,0.0,0.0025,0.0,0.0,0.0,0.0025,0.01,-0.02,-0.0,0.02,0.0,0.0,0.0,0.02,0.0,0.0,0.0,0.02,-1.2736308593749999,-0.009576171875,9.719814453124998,0.04,0.0,0.0,0.0,0.04,0.0,0.0,0.0,0.04
1614726920.7324078,8963,1614726920,731937646,base_imu_link,-0.0394400559631759,0.050338107501871406,0.5928591307046842,0.8027631083070758,0.0025,0.0,0.0,0.0,0.0025,0.0,0.0,0.0,0.0025,0.01,-0.02,-0.0,0.02,0.0,0.0,0.0,0.02,0.0,0.0,0.0,0.02,-1.28320703125,-0.01915234375,9.67653015625,0.04,0.0,0.0,0.0,0.04,0.0,0.0,0.0,0.04
1614726920.7524269,8964,1614726920,751992225,base_imu_link,-0.03948666962159433,0.05051963973220462,0.5930584854130803,0.8026021441555379,0.0025,0.0,0.0,0.0,0.0025,0.0,0.0,0.0,0.0025,0.01,-0.02,0.0,0.02,0.0,0.0,0.0,0.02,0.0,0.0,0.0,0.02,-1.2977628125,0.009576171875,9.6956825,0.04,0.0,0.0,0.0,0.04,0.0,0.0,0.0,0.04
1614726920.7728286,8965,1614726920,772360801,base_imu_link,-0.03947905674759445,0.050958546690542623,0.5929622823651056,0.8026458511011396,0.0025,0.0,0.0,0.0,0.0025,0.0,0.0,0.0,0.0025,0.01,-0.02,0.01,0.02,0.0,0.0,0.0,0.02,0.0,0.0,0.0,0.02,-1.302359375,-0.004979609375,9.700662109375,0.04,0.0,0.0,0.0,0.04,0.0,0.0,0.0,0.04
1614726920.792882,8966,1614726920,792423248,base_imu_link,-0.039615940927777794,0.05129050388444026,0.5929448231255847,0.802630860460932,0.0025,0.0,0.0,0.0,0.0025,0.0,0.0,0.0,0.0025,0.01,-0.01,0.01,0.02,0.0,0.0,0.0,0.02,0.0,0.0,0.0,0.02,-1.28320703125,-0.023748906249999997,9.705641718749998,0.04,0.0,0.0,0.0,0.04,0.0,0.0,0.0,0.04
1614726920.8130286,8967,1614726920,812602281,base_imu_link,-0.039811859583622745,0.051361497242618945,0.5932929287105243,0.8023593416790131,0.0025,0.0,0.0,0.0,0.0025,0.0,0.0,0.0,0.0025,-0.0,-0.01,0.02,0.02,0.0,0.0,0.0,0.02,0.0,0.0,0.0,0.02,-1.269034296875,-0.028728515625,9.733987187499999,0.04,0.0,0.0,0.0,0.04,0.0,0.0,0.0,0.04
1614726920.833121,8968,1614726920,832651615,base_imu_link,-0.03994260583536561,0.051372781105457725,0.593434173633825,0.8022476594943176,0.0025,0.0,0.0,0.0,0.0025,0.0,0.0,0.0,0.0025,-0.0,-0.02,0.02,0.02,0.0,0.0,0.0,0.02,0.0,0.0,0.0,0.02,-1.259458125,-0.033708125,9.74854296875,0.04,0.0,0.0,0.0,0.04,0.0,0.0,0.0,0.04
1614726920.8529618,8969,1614726920,852499961,base_imu_link,-0.04001709344780137,0.051317502054009874,0.5935086612462607,0.8021923804428698,0.0025,0.0,0.0,0.0,0.0025,0.0,0.0,0.0,0.0025,0.0,-0.02,0.01,0.02,0.0,0.0,0.0,0.02,0.0,0.0,0.0,0.02,-1.2736308593749999,-0.047880859374999994,9.733987187499999,0.04,0.0,0.0,0.0,0.04,0.0,0.0,0.0,0.04
1614726920.873034,8970,1614726920,872550487,base_imu_link,-0.04020440360072301,0.051287439221170204,0.5934443530389248,0.8022325126516981,0.0025,0.0,0.0,0.0,0.0025,0.0,0.0,0.0,0.0025,0.0,-0.01,0.01,0.02,0.0,0.0,0.0,0.02,0.0,0.0,0.0,0.02,-1.2736308593749999,-0.0720128125,9.691085937499999,0.04,0.0,0.0,0.0,0.04,0.0,0.0,0.0,0.04
1614726920.892894,8971,1614726920,892399072,base_imu_link,-0.04051796521363378,0.05127211578064296,0.5934512835851199,0.802212589435928,0.0025,0.0,0.0,0.0,0.0025,0.0,0.0,0.0,0.0025,0.01,-0.01,-0.0,0.02,0.0,0.0,0.0,0.02,0.0,0.0,0.0,0.02,-1.2736308593749999,-0.06243664062499999,9.6956825,0.04,0.0,0.0,0.0,0.04,0.0,0.0,0.0,0.04
1614726920.9130511,8972,1614726920,912619352,base_imu_link,-0.0407998285612011,0.05138928263666272,0.5932404782342243,0.8023467147087316,0.0025,0.0,0.0,0.0,0.0025,0.0,0.0,0.0,0.0025,0.0,0.0,-0.0,0.02,0.0,0.0,0.0,0.02,0.0,0.0,0.0,0.02,-1.269034296875,-0.0383046875,9.74854296875,0.04,0.0,0.0,0.0,0.04,0.0,0.0,0.0,0.04
1614726920.9329245,8973,1614726920,932447433,base_imu_link,-0.04096885072551133,0.05148115441943798,0.5931684592625048,0.8023854578355835,0.0025,0.0,0.0,0.0,0.0025,0.0,0.0,0.0,0.0025,0.01,-0.0,-0.01,0.02,0.0,0.0,0.0,0.02,0.0,0.0,0.0,0.02,-1.24490234375,-0.076609375,9.815576171875,0.04,0.0,0.0,0.0,0.04,0.0,0.0,0.0,0.04
1614726920.952942,8974,1614726920,952476263,base_imu_link,-0.04104371778318196,0.051318335016594836,0.5929705823887168,0.802538304471036,0.0025,0.0,0.0,0.0,0.0025,0.0,0.0,0.0,0.0025,0.01,-0.0,-0.01,0.02,0.0,0.0,0.0,0.02,0.0,0.0,0.0,0.02,-1.24490234375,-0.067033203125,9.882609375,0.04,0.0,0.0,0.0,0.04,0.0,0.0,0.0,0.04
1614726920.9730208,8975,1614726920,972577810,base_imu_link,-0.040949671142206004,0.051063577889380415,0.5928446212520809,0.8026524095142038,0.0025,0.0,0.0,0.0,0.0025,0.0,0.0,0.0,0.0025,0.01,-0.02,-0.01,0.02,0.0,0.0,0.0,0.02,0.0,0.0,0.0,0.02,-1.24030578125,-0.047880859374999994,9.90635828125,0.04,0.0,0.0,0.0,0.04,0.0,0.0,0.0,0.04
1614726920.9932463,8976,1614726920,992749929,base_imu_link,-0.04067277656787378,0.050835061611002715,0.5928529781261884,0.8026748208858768,0.0025,0.0,0.0,0.0,0.0025,0.0,0.0,0.0,0.0025,0.01,-0.03,-0.01,0.02,0.0,0.0,0.0,0.02,0.0,0.0,0.0,0.02,-1.24030578125,-0.047880859374999994,9.853880859375,0.04,0.0,0.0,0.0,0.04,0.0,0.0,0.0,0.04
1614726921.0131745,8977,1614726921,12755393,base_imu_link,-0.04050438102965092,0.05063547464891115,0.5926523783985076,0.8028440709148176,0.0025,0.0,0.0,0.0,0.0025,0.0,0.0,0.0,0.0025,0.02,-0.02,-0.01,0.02,0.0,0.0,0.0,0.02,0.0,0.0,0.0,0.02,-1.230729609375,-0.0720128125,9.78684765625,0.04,0.0,0.0,0.0,0.04,0.0,0.0,0.0,0.04
1614726921.0333343,8978,1614726921,32794713,base_imu_link,-0.04039658241414367,0.050498842627171386,0.5925886649730956,0.8029051358460586,0.0025,0.0,0.0,0.0,0.0025,0.0,0.0,0.0,0.0025,0.02,-0.02,-0.01,0.02,0.0,0.0,0.0,0.02,0.0,0.0,0.0,0.02,-1.24030578125,-0.09576171874999999,9.777271484375,0.04,0.0,0.0,0.0,0.04,0.0,0.0,0.0,0.04
1614726921.0533383,8979,1614726921,52824258,base_imu_link,-0.04042456408519795,0.050262302664042864,0.5924636345309189,0.8030108326217297,0.0025,0.0,0.0,0.0,0.0025,0.0,0.0,0.0,0.0025,0.02,-0.02,-0.01,0.02,0.0,0.0,0.0,0.02,0.0,0.0,0.0,0.02,-1.2161738281249999,-0.0720128125,9.777271484375,0.04,0.0,0.0,0.0,0.04,0.0,0.0,0.0,0.04
1614726921.0735238,8980,1614726921,73028087,base_imu_link,-0.040308084715107065,0.05013266829751539,0.5922596720451798,0.803175232900584,0.0025,0.0,0.0,0.0,0.0025,0.0,0.0,0.0,0.0025,0.02,-0.02,-0.01,0.02,0.0,0.0,0.0,0.02,0.0,0.0,0.0,0.02,-1.2020010937499999,-0.047880859374999994,9.767695312499999,0.04,0.0,0.0,0.0,0.04,0.0,0.0,0.0,0.04
1614726921.0934427,8981,1614726921,92944383,base_imu_link,-0.040105792620252725,0.04984873247941569,0.5923422786670706,0.8031421133099669,0.0025,0.0,0.0,0.0,0.0025,0.0,0.0,0.0,0.0025,0.01,-0.02,-0.0,0.02,0.0,0.0,0.0,0.02,0.0,0.0,0.0,0.02,-1.2020010937499999,-0.028728515625,9.78684765625,0.04,0.0,0.0,0.0,0.04,0.0,0.0,0.0,0.04
1614726921.1137757,8982,1614726921,113317966,base_imu_link,-0.03994645735944506,0.049641901104149844,0.592281529427751,0.803207664367018,0.0025,0.0,0.0,0.0,0.0025,0.0,0.0,0.0,0.0025,-0.0,-0.03,0.0,0.02,0.0,0.0,0.0,0.02,0.0,0.0,0.0,0.02,-1.211577265625,-0.014555781249999998,9.772291874999999,0.04,0.0,0.0,0.0,0.04,0.0,0.0,0.0,0.04
1614726921.133783,8983,1614726921,133340358,base_imu_link,-0.039764389167486223,0.049560306112421834,0.5921432142911517,0.8033237100827556,0.0025,0.0,0.0,0.0,0.0025,0.0,0.0,0.0,0.0025,-0.0,-0.02,0.01,0.02,0.0,0.0,0.0,0.02,0.0,0.0,0.0,0.02,-1.22575,-0.0383046875,9.74854296875,0.04,0.0,0.0,0.0,0.04,0.0,0.0,0.0,0.04
1614726921.1536734,8984,1614726921,153201103,base_imu_link,-0.039773038466995606,0.04955336516245027,0.5922834117085858,0.8032203493606334,0.0025,0.0,0.0,0.0,0.0025,0.0,0.0,0.0,0.0025,0.0,-0.02,-0.0,0.02,0.0,0.0,0.0,0.02,0.0,0.0,0.0,0.02,-1.2211534375,-0.01915234375,9.810596562499999,0.04,0.0,0.0,0.0,0.04,0.0,0.0,0.0,0.04
1614726921.1735857,8985,1614726921,173127412,base_imu_link,-0.03958234756158057,0.049478648277270325,0.5920048786268155,0.8034396833665972,0.0025,0.0,0.0,0.0,0.0025,0.0,0.0,0.0,0.0025,0.01,-0.03,-0.0,0.02,0.0,0.0,0.0,0.02,0.0,0.0,0.0,0.02,-1.230729609375,0.014555781249999998,9.8443046875,0.04,0.0,0.0,0.0,0.04,0.0,0.0,0.0,0.04
1614726921.1936595,8986,1614726921,193233966,base_imu_link,-0.039151284052992924,0.04947148932473054,0.5920670357635508,0.8034154428831681,0.0025,0.0,0.0,0.0,0.0025,0.0,0.0,0.0,0.0025,0.01,-0.03,0.0,0.02,0.0,0.0,0.0,0.02,0.0,0.0,0.0,0.02,-1.230729609375,0.01915234375,9.782251093749998,0.04,0.0,0.0,0.0,0.04,0.0,0.0,0.0,0.04
1614726921.2136738,8987,1614726921,213269233,base_imu_link,-0.03888929944020819,0.049556365579044324,0.5920571906171693,0.8034301911542476,0.0025,0.0,0.0,0.0,0.0025,0.0,0.0,0.0,0.0025,0.01,-0.03,0.01,0.02,0.0,0.0,0.0,0.02,0.0,0.0,0.0,0.02,-1.22575,0.023748906249999997,9.738966796875,0.04,0.0,0.0,0.0,0.04,0.0,0.0,0.0,0.04
1614726921.2337594,8988,1614726921,233297348,base_imu_link,-0.03867462229554399,0.049714739275825044,0.5919740808506173,0.8034920073591899,0.0025,0.0,0.0,0.0,0.0025,0.0,0.0,0.0,0.0025,0.0,-0.02,0.02,0.02,0.0,0.0,0.0,0.02,0.0,0.0,0.0,0.02,-1.2065976562499998,0.014555781249999998,9.772291874999999,0.04,0.0,0.0,0.0,0.04,0.0,0.0,0.0,0.04
1614726921.2540717,8989,1614726921,253638744,base_imu_link,-0.038482740150624715,0.04974792913442922,0.5919685474207598,0.8035032427575456,0.0025,0.0,0.0,0.0,0.0025,0.0,0.0,0.0,0.0025,-0.0,-0.02,0.02,0.02,0.0,0.0,0.0,0.02,0.0,0.0,0.0,0.02,-1.2065976562499998,-0.01915234375,9.796423828124999,0.04,0.0,0.0,0.0,0.04,0.0,0.0,0.0,0.04
1614726921.274132,8990,1614726921,273662090,base_imu_link,-0.038453891733759654,0.049552656009742194,0.5920492827412005,0.8034572043976818,0.0025,0.0,0.0,0.0,0.0025,0.0,0.0,0.0,0.0025,-0.01,-0.03,0.01,0.02,0.0,0.0,0.0,0.02,0.0,0.0,0.0,0.02,-1.2211534375,-0.009576171875,9.796423828124999,0.04,0.0,0.0,0.0,0.04,0.0,0.0,0.0,0.04
1614726921.2941382,8991,1614726921,293729066,base_imu_link,-0.03835058673558112,0.049412405126902655,0.5920555446168481,0.8034661653144199,0.0025,0.0,0.0,0.0,0.0025,0.0,0.0,0.0,0.0025,0.0,-0.03,0.01,0.02,0.0,0.0,0.0,0.02,0.0,0.0,0.0,0.02,-1.230729609375,-0.009576171875,9.772291874999999,0.04,0.0,0.0,0.0,0.04,0.0,0.0,0.0,0.04
1614726921.3142483,8992,1614726921,313777208,base_imu_link,-0.03827183724747857,0.049470751980886137,0.5919109894162152,0.8035728291701165,0.0025,0.0,0.0,0.0,0.0025,0.0,0.0,0.0,0.0025,0.01,-0.02,0.0,0.02,0.0,0.0,0.0,0.02,0.0,0.0,0.0,0.02,-1.249881953125,-0.0383046875,9.743946406249998,0.04,0.0,0.0,0.0,0.04,0.0,0.0,0.0,0.04
1614726921.3340333,8993,1614726921,333598136,base_imu_link,-0.03830499422439736,0.04966267358673009,0.5919003852318381,0.8035672219746698,0.0025,0.0,0.0,0.0,0.0025,0.0,0.0,0.0,0.0025,0.02,-0.02,-0.0,0.02,0.0,0.0,0.0,0.02,0.0,0.0,0.0,0.02,-1.249881953125,-0.05745703125,9.782251093749998,0.04,0.0,0.0,0.0,0.04,0.0,0.0,0.0,0.04
1614726921.3540683,8994,1614726921,353630781,base_imu_link,-0.038474056912948695,0.04975464488189901,0.5918283006339095,0.8036065485211742,0.0025,0.0,0.0,0.0,0.0025,0.0,0.0,0.0,0.0025,0.02,-0.02,-0.01,0.02,0.0,0.0,0.0,0.02,0.0,0.0,0.0,0.02,-1.2544785156249998,-0.04290125,9.8014034375,0.04,0.0,0.0,0.0,0.04,0.0,0.0,0.0,0.04
1614726921.3740747,8995,1614726921,373648405,base_imu_link,-0.038530038304416064,0.049821420055923125,0.5918952742283713,0.8035504007826718,0.0025,0.0,0.0,0.0,0.0025,0.0,0.0,0.0,0.0025,0.02,-0.02,-0.01,0.02,0.0,0.0,0.0,0.02,0.0,0.0,0.0,0.02,-1.24030578125,-0.05286046874999999,9.777271484375,0.04,0.0,0.0,0.0,0.04,0.0,0.0,0.0,0.04
1614726921.3940575,8996,1614726921,393654108,base_imu_link,-0.03856861473717354,0.049901651484545215,0.591681729562829,0.8037008262020823,0.0025,0.0,0.0,0.0,0.0025,0.0,0.0,0.0,0.0025,0.02,-0.01,-0.01,0.02,0.0,0.0,0.0,0.02,0.0,0.0,0.0,0.02,-1.235326171875,-0.05286046874999999,9.700662109375,0.04,0.0,0.0,0.0,0.04,0.0,0.0,0.0,0.04
1614726921.4141552,8997,1614726921,413676023,base_imu_link,-0.03871472908523343,0.05011884494745793,0.5915319574823665,0.8037905289377757,0.0025,0.0,0.0,0.0,0.0025,0.0,0.0,0.0,0.0025,0.02,-0.0,-0.0,0.02,0.0,0.0,0.0,0.02,0.0,0.0,0.0,0.02,-1.22575,-0.04290125,9.700662109375,0.04,0.0,0.0,0.0,0.04,0.0,0.0,0.0,0.04
1614726921.4344249,8998,1614726921,433957815,base_imu_link,-0.03882671517496928,0.05025237575177172,0.5916658850694825,0.8036782100847146,0.0025,0.0,0.0,0.0,0.0025,0.0,0.0,0.0,0.0025,0.01,-0.0,0.0,0.02,0.0,0.0,0.0,0.02,0.0,0.0,0.0,0.02,-1.230729609375,-0.028728515625,9.74854296875,0.04,0.0,0.0,0.0,0.04,0.0,0.0,0.0,0.04
1614726921.4545763,8999,1614726921,454138994,base_imu_link,-0.038882725697272844,0.05031912649295005,0.5917328341584972,0.8036220331288144,0.0025,0.0,0.0,0.0,0.0025,0.0,0.0,0.0,0.0025,0.01,-0.01,0.01,0.02,0.0,0.0,0.0,0.02,0.0,0.0,0.0,0.02,-1.235326171875,-0.009576171875,9.772291874999999,0.04,0.0,0.0,0.0,0.04,0.0,0.0,0.0,0.04
1614726921.4746244,9000,1614726921,474160432,base_imu_link,-0.03882138706292808,0.05036398988940204,0.5918686908158097,0.8035221348916965,0.0025,0.0,0.0,0.0,0.0025,0.0,0.0,0.0,0.0025,0.01,-0.01,0.01,0.02,0.0,0.0,0.0,0.02,0.0,0.0,0.0,0.02,-1.235326171875,-0.023748906249999997,9.733987187499999,0.04,0.0,0.0,0.0,0.04,0.0,0.0,0.0,0.04
1614726921.4946237,9001,1614726921,494101285,base_imu_link,-0.03892466209551702,0.05050424856450228,0.5918622978437752,0.8035130440439479,0.0025,0.0,0.0,0.0,0.0025,0.0,0.0,0.0,0.0025,0.01,-0.01,0.01,0.02,0.0,0.0,0.0,0.02,0.0,0.0,0.0,0.02,-1.2211534375,-0.023748906249999997,9.729390624999999,0.04,0.0,0.0,0.0,0.04,0.0,0.0,0.0,0.04
1614726921.5146644,9002,1614726921,514257669,base_imu_link,-0.03886777637788263,0.05054572427343981,0.5920682280894679,0.8033614622348461,0.0025,0.0,0.0,0.0,0.0025,0.0,0.0,0.0,0.0025,0.01,-0.01,0.01,0.02,0.0,0.0,0.0,0.02,0.0,0.0,0.0,0.02,-1.211577265625,-0.023748906249999997,9.758119140624999,0.04,0.0,0.0,0.0,0.04,0.0,0.0,0.0,0.04
1614726921.5345566,9003,1614726921,534129858,base_imu_link,-0.03886777637788263,0.05054572427343981,0.5920682280894679,0.8033614622348461,0.0025,0.0,0.0,0.0,0.0025,0.0,0.0,0.0,0.0025,0.01,-0.01,0.01,0.02,0.0,0.0,0.0,0.02,0.0,0.0,0.0,0.02,-1.211577265625,0.0,9.810596562499999,0.04,0.0,0.0,0.0,0.04,0.0,0.0,0.0,0.04
1614726921.5547438,9004,1614726921,554345369,base_imu_link,-0.03869435638350476,0.05045716126617508,0.5920702347152215,0.8033739221715427,0.0025,0.0,0.0,0.0,0.0025,0.0,0.0,0.0,0.0025,0.01,-0.01,0.02,0.02,0.0,0.0,0.0,0.02,0.0,0.0,0.0,0.02,-1.177869140625,-0.009576171875,9.79144421875,0.04,0.0,0.0,0.0,0.04,0.0,0.0,0.0,0.04
1614726921.5748491,9005,1614726921,574414014,base_imu_link,-0.03851653769868022,0.05037195885033582,0.5920021323338085,0.8034379984774869,0.0025,0.0,0.0,0.0,0.0025,0.0,0.0,0.0,0.0025,0.0,-0.01,0.02,0.02,0.0,0.0,0.0,0.02,0.0,0.0,0.0,0.02,-1.173272578125,-0.01915234375,9.777271484375,0.04,0.0,0.0,0.0,0.04,0.0,0.0,0.0,0.04
1614726921.5948515,9006,1614726921,594419479,base_imu_link,-0.03848334729433968,0.05018005412682564,0.5920129088304865,0.8034436569709903,0.0025,0.0,0.0,0.0,0.0025,0.0,0.0,0.0,0.0025,0.0,-0.01,0.02,0.02,0.0,0.0,0.0,0.02,0.0,0.0,0.0,0.02,-1.1828487499999998,-0.028728515625,9.810596562499999,0.04,0.0,0.0,0.0,0.04,0.0,0.0,0.0,0.04
1614726921.6150708,9007,1614726921,614641904,base_imu_link,-0.038402860662854366,0.04991467237545025,0.5920969202094437,0.8034021302268575,0.0025,0.0,0.0,0.0,0.0025,0.0,0.0,0.0,0.0025,0.0,-0.01,0.02,0.02,0.0,0.0,0.0,0.02,0.0,0.0,0.0,0.02,-1.2020010937499999,-0.05286046874999999,9.825152343749998,0.04,0.0,0.0,0.0,0.04,0.0,0.0,0.0,0.04
1614726921.635091,9008,1614726921,634681224,base_imu_link,-0.038487081329885,0.049744570692403324,0.5920386640523044,0.8034515806969939,0.0025,0.0,0.0,0.0,0.0025,0.0,0.0,0.0,0.0025,0.01,-0.01,0.01,0.02,0.0,0.0,0.0,0.02,0.0,0.0,0.0,0.02,-1.2065976562499998,-0.05745703125,9.8443046875,0.04,0.0,0.0,0.0,0.04,0.0,0.0,0.0,0.04
1614726921.655154,9009,1614726921,654673337,base_imu_link,-0.03847118653067293,0.04953923005067519,0.5923297061381126,0.803250491266109,0.0025,0.0,0.0,0.0,0.0025,0.0,0.0,0.0,0.0025,0.01,-0.02,0.01,0.02,0.0,0.0,0.0,0.02,0.0,0.0,0.0,0.02,-1.211577265625,-0.05286046874999999,9.848901249999999,0.04,0.0,0.0,0.0,0.04,0.0,0.0,0.0,0.04
1614726921.6752381,9010,1614726921,674698591,base_imu_link,-0.038446542193882306,0.04934061454778425,0.5924804653772131,0.8031527035973807,0.0025,0.0,0.0,0.0,0.0025,0.0,0.0,0.0,0.0025,0.02,-0.02,0.01,0.02,0.0,0.0,0.0,0.02,0.0,0.0,0.0,0.02,-1.22575,-0.04290125,9.806,0.04,0.0,0.0,0.0,0.04,0.0,0.0,0.0,0.04
1614726921.6955056,9011,1614726921,694858551,base_imu_link,-0.03845515317005242,0.04933390360884488,0.5926206329432485,0.8030492840164446,0.0025,0.0,0.0,0.0,0.0025,0.0,0.0,0.0,0.0025,0.02,-0.03,0.01,0.02,0.0,0.0,0.0,0.02,0.0,0.0,0.0,0.02,-1.2161738281249999,-0.067033203125,9.738966796875,0.04,0.0,0.0,0.0,0.04,0.0,0.0,0.0,0.04
1614726921.715227,9012,1614726921,714776039,base_imu_link,-0.038586718198337,0.0492372064480629,0.592489067914964,0.8031459811772266,0.0025,0.0,0.0,0.0,0.0025,0.0,0.0,0.0,0.0025,0.01,-0.02,0.01,0.02,0.0,0.0,0.0,0.02,0.0,0.0,0.0,0.02,-1.211577265625,-0.0720128125,9.67653015625,0.04,0.0,0.0,0.0,0.04,0.0,0.0,0.0,0.04
1614726921.7351756,9013,1614726921,734787702,base_imu_link,-0.038805545849821585,0.04907531938930762,0.592642102505535,0.8030324283464236,0.0025,0.0,0.0,0.0,0.0025,0.0,0.0,0.0,0.0025,0.0,-0.02,0.01,0.02,0.0,0.0,0.0,0.02,0.0,0.0,0.0,0.02,-1.2161738281249999,-0.04290125,9.691085937499999,0.04,0.0,0.0,0.0,0.04,0.0,0.0,0.0,0.04
1614726921.7552264,9014,1614726921,754820823,base_imu_link,-0.03894445690731257,0.04908010168550868,0.5929235662153775,0.8028176116162209,0.0025,0.0,0.0,0.0,0.0025,0.0,0.0,0.0,0.0025,0.0,-0.01,0.01,0.02,0.0,0.0,0.0,0.02,0.0,0.0,0.0,0.02,-1.22575,-0.067033203125,9.705641718749998,0.04,0.0,0.0,0.0,0.04,0.0,0.0,0.0,0.04
1614726921.7752705,9015,1614726921,774844169,base_imu_link,-0.039183732175789576,0.04912018262773587,0.5928558931341927,0.8028534939622873,0.0025,0.0,0.0,0.0,0.0025,0.0,0.0,0.0,0.0025,0.0,-0.01,0.01,0.02,0.0,0.0,0.0,0.02,0.0,0.0,0.0,0.02,-1.24490234375,-0.06243664062499999,9.76309875,0.04,0.0,0.0,0.0,0.04,0.0,0.0,0.0,0.04
1614726921.7955074,9016,1614726921,795068979,base_imu_link,-0.03935722414620965,0.04920860083488802,0.5928540021650766,0.8028409896288486,0.0025,0.0,0.0,0.0,0.0025,0.0,0.0,0.0,0.0025,0.01,-0.01,0.01,0.02,0.0,0.0,0.0,0.02,0.0,0.0,0.0,0.02,-1.2544785156249998,-0.047880859374999994,9.796423828124999,0.04,0.0,0.0,0.0,0.04,0.0,0.0,0.0,0.04
1614726921.8154936,9017,1614726921,815095186,base_imu_link,-0.039460652882625756,0.04934875416665583,0.5928478088494478,0.8028318833222086,0.0025,0.0,0.0,0.0,0.0025,0.0,0.0,0.0,0.0025,0.01,-0.02,0.01,0.02,0.0,0.0,0.0,0.02,0.0,0.0,0.0,0.02,-1.24490234375,-0.01915234375,9.815576171875,0.04,0.0,0.0,0.0,0.04,0.0,0.0,0.0,0.04
1614726921.8353596,9018,1614726921,834949731,base_imu_link,-0.03927312592863001,0.04937872190171759,0.5929123570211366,0.8027915671547546,0.0025,0.0,0.0,0.0,0.0025,0.0,0.0,0.0,0.0025,0.01,-0.02,0.01,0.02,0.0,0.0,0.0,0.02,0.0,0.0,0.0,0.02,-1.230729609375,0.0,9.782251093749998,0.04,0.0,0.0,0.0,0.04,0.0,0.0,0.0,0.04
1614726921.8556182,9019,1614726921,855169773,base_imu_link,-0.039141647448350796,0.049475373124530486,0.5930438355014158,0.8026949159319419,0.0025,0.0,0.0,0.0,0.0025,0.0,0.0,0.0,0.0025,0.0,-0.02,0.01,0.02,0.0,0.0,0.0,0.02,0.0,0.0,0.0,0.02,-1.2211534375,-0.033708125,9.71023828125,0.04,0.0,0.0,0.0,0.04,0.0,0.0,0.0,0.04
1614726921.875661,9020,1614726921,875215291,base_imu_link,-0.03921067382893427,0.0495317508859328,0.5933208666009103,0.8024833194328712,0.0025,0.0,0.0,0.0,0.0025,0.0,0.0,0.0,0.0025,0.0,-0.01,0.01,0.02,0.0,0.0,0.0,0.02,0.0,0.0,0.0,0.02,-1.2020010937499999,-0.04290125,9.705641718749998,0.04,0.0,0.0,0.0,0.04,0.0,0.0,0.0,0.04
1614726921.8958235,9021,1614726921,895411729,base_imu_link,-0.03941112897482689,0.049491362275744355,0.5934664327766667,0.802368345051298,0.0025,0.0,0.0,0.0,0.0025,0.0,0.0,0.0,0.0025,-0.0,-0.0,0.01,0.02,0.0,0.0,0.0,0.02,0.0,0.0,0.0,0.02,-1.197021484375,-0.028728515625,9.75313953125,0.04,0.0,0.0,0.0,0.04,0.0,0.0,0.0,0.04
1614726921.9158742,9022,1614726921,915433406,base_imu_link,-0.039359359240438756,0.049421327354279634,0.5934695520124148,0.802372895901218,0.0025,0.0,0.0,0.0,0.0025,0.0,0.0,0.0,0.0025,-0.0,-0.01,0.01,0.02,0.0,0.0,0.0,0.02,0.0,0.0,0.0,0.02,-1.1924249218749998,-0.023748906249999997,9.78684765625,0.04,0.0,0.0,0.0,0.04,0.0,0.0,0.0,0.04
1614726921.9360335,9023,1614726921,935650348,base_imu_link,-0.03930758920631196,0.04935129205644998,0.593472666728634,0.802377440640719,0.0025,0.0,0.0,0.0,0.0025,0.0,0.0,0.0,0.0025,-0.0,-0.01,0.01,0.02,0.0,0.0,0.0,0.02,0.0,0.0,0.0,0.02,-1.2161738281249999,-0.023748906249999997,9.782251093749998,0.04,0.0,0.0,0.0,0.04,0.0,0.0,0.0,0.04
1614726921.9560153,9024,1614726921,955602407,base_imu_link,-0.0391901026577331,0.04932962693297456,0.5935414931404078,0.8023336087195806,0.0025,0.0,0.0,0.0,0.0025,0.0,0.0,0.0,0.0025,0.01,-0.01,0.01,0.02,0.0,0.0,0.0,0.02,0.0,0.0,0.0,0.02,-1.230729609375,-0.028728515625,9.758119140624999,0.04,0.0,0.0,0.0,0.04,0.0,0.0,0.0,0.04
1614726921.9759827,9025,1614726921,975558042,base_imu_link,-0.03917617823335034,0.04944803504499715,0.5936040777015955,0.8022806976521718,0.0025,0.0,0.0,0.0,0.0025,0.0,0.0,0.0,0.0025,0.01,-0.01,0.01,0.02,0.0,0.0,0.0,0.02,0.0,0.0,0.0,0.02,-1.22575,-0.0383046875,9.729390624999999,0.04,0.0,0.0,0.0,0.04,0.0,0.0,0.0,0.04
1614726921.9959748,9026,1614726921,995555877,base_imu_link,-0.03921499614031179,0.04952832892053301,0.5933908942222053,0.802431539364092,0.0025,0.0,0.0,0.0,0.0025,0.0,0.0,0.0,0.0025,0.01,-0.01,0.01,0.02,0.0,0.0,0.0,0.02,0.0,0.0,0.0,0.02,-1.1924249218749998,-0.047880859374999994,9.738966796875,0.04,0.0,0.0,0.0,0.04,0.0,0.0,0.0,0.04
1614726922.0159419,9027,1614726922,15518188,base_imu_link,-0.0392375684158141,0.04940308212874349,0.5934683577561805,0.8023808678197513,0.0025,0.0,0.0,0.0,0.0025,0.0,0.0,0.0,0.0025,0.01,-0.01,0.01,0.02,0.0,0.0,0.0,0.02,0.0,0.0,0.0,0.02,-1.173272578125,-0.028728515625,9.74854296875,0.04,0.0,0.0,0.0,0.04,0.0,0.0,0.0,0.04
1614726922.0360181,9028,1614726922,35624742,base_imu_link,-0.0390640047789756,0.04931480118919836,0.5934702845849958,0.8023933419644644,0.0025,0.0,0.0,0.0,0.0025,0.0,0.0,0.0,0.0025,0.01,-0.01,0.01,0.02,0.0,0.0,0.0,0.02,0.0,0.0,0.0,0.02,-1.177869140625,-0.01915234375,9.767695312499999,0.04,0.0,0.0,0.0,0.04,0.0,0.0,0.0,0.04
1614726922.0561914,9029,1614726922,55761814,base_imu_link,-0.03886788101620647,0.04935173725580157,0.5933947688185238,0.8024564425524634,0.0025,0.0,0.0,0.0,0.0025,0.0,0.0,0.0,0.0025,0.01,-0.0,0.0,0.02,0.0,0.0,0.0,0.02,0.0,0.0,0.0,0.02,-1.1924249218749998,-0.004979609375,9.78684765625,0.04,0.0,0.0,0.0,0.04,0.0,0.0,0.0,0.04
1614726922.0759168,9030,1614726922,75508832,base_imu_link,-0.038640513493354664,0.04952057705036406,0.5931016784006751,0.8026736710792693,0.0025,0.0,0.0,0.0,0.0025,0.0,0.0,0.0,0.0025,0.02,-0.0,0.0,0.02,0.0,0.0,0.0,0.02,0.0,0.0,0.0,0.02,-1.1924249218749998,0.023748906249999997,9.767695312499999,0.04,0.0,0.0,0.0,0.04,0.0,0.0,0.0,0.04
1614726922.095717,9031,1614726922,95327854,base_imu_link,-0.03841736627217636,0.04968590835342013,0.592878531179497,0.8028390023823253,0.0025,0.0,0.0,0.0,0.0025,0.0,0.0,0.0,0.0025,0.01,-0.01,-0.0,0.02,0.0,0.0,0.0,0.02,0.0,0.0,0.0,0.02,-1.2020010937499999,0.05286046874999999,9.8014034375,0.04,0.0,0.0,0.0,0.04,0.0,0.0,0.0,0.04
1614726922.1161885,9032,1614726922,115756273,base_imu_link,-0.03794090988794096,0.04992957462410747,0.5927855604367065,0.8029151912079322,0.0025,0.0,0.0,0.0,0.0025,0.0,0.0,0.0,0.0025,0.01,-0.01,0.0,0.02,0.0,0.0,0.0,0.02,0.0,0.0,0.0,0.02,-1.2020010937499999,0.067033203125,9.825152343749998,0.04,0.0,0.0,0.0,0.04,0.0,0.0,0.0,0.04
1614726922.136236,9033,1614726922,135798454,base_imu_link,-0.03748275110927058,0.050051348086587046,0.5927000755544233,0.8029922330644156,0.0025,0.0,0.0,0.0,0.0025,0.0,0.0,0.0,0.0025,0.01,-0.02,0.01,0.02,0.0,0.0,0.0,0.02,0.0,0.0,0.0,0.02,-1.211577265625,0.05286046874999999,9.79144421875,0.04,0.0,0.0,0.0,0.04,0.0,0.0,0.0,0.04
1614726922.1563294,9034,1614726922,155899286,base_imu_link,-0.0372112228150268,0.050251742570830565,0.5928227100596488,0.8029018132391651,0.0025,0.0,0.0,0.0,0.0025,0.0,0.0,0.0,0.0025,0.01,-0.02,0.01,0.02,0.0,0.0,0.0,0.02,0.0,0.0,0.0,0.02,-1.211577265625,0.01915234375,9.767695312499999,0.04,0.0,0.0,0.0,0.04,0.0,0.0,0.0,0.04
1614726922.1764245,9035,1614726922,176047801,base_imu_link,-0.037154324418611925,0.05029375066454002,0.593028502245082,0.8027498304864626,0.0025,0.0,0.0,0.0,0.0025,0.0,0.0,0.0,0.0025,0.01,-0.01,0.02,0.02,0.0,0.0,0.0,0.02,0.0,0.0,0.0,0.02,-1.2065976562499998,-0.009576171875,9.79144421875,0.04,0.0,0.0,0.0,0.04,0.0,0.0,0.0,0.04
1614726922.1964552,9036,1614726922,196035861,base_imu_link,-0.03725579941278812,0.05011044117780911,0.5932506375081418,0.8025924433928237,0.0025,0.0,0.0,0.0,0.0025,0.0,0.0,0.0,0.0025,0.0,-0.02,0.02,0.02,0.0,0.0,0.0,0.02,0.0,0.0,0.0,0.02,-1.1924249218749998,-0.0383046875,9.834728515624999,0.04,0.0,0.0,0.0,0.04,0.0,0.0,0.0,0.04
1614726922.2167633,9037,1614726922,216286420,base_imu_link,-0.037310610450957474,0.049745000969849025,0.5932733409192542,0.8025958485942929,0.0025,0.0,0.0,0.0,0.0025,0.0,0.0,0.0,0.0025,-0.0,-0.02,0.02,0.02,0.0,0.0,0.0,0.02,0.0,0.0,0.0,0.02,-1.1828487499999998,-0.08618554687499999,9.848901249999999,0.04,0.0,0.0,0.0,0.04,0.0,0.0,0.0,0.04
1614726922.2365625,9038,1614726922,236152172,base_imu_link,-0.03757124620059326,0.04922750164016569,0.5932387187885594,0.8026411882474699,0.0025,0.0,0.0,0.0,0.0025,0.0,0.0,0.0,0.0025,0.0,-0.02,0.01,0.02,0.0,0.0,0.0,0.02,0.0,0.0,0.0,0.02,-1.1874453125,-0.11989367187499998,9.772291874999999,0.04,0.0,0.0,0.0,0.04,0.0,0.0,0.0,0.04
1614726922.2565098,9039,1614726922,256094932,base_imu_link,-0.038048750602371104,0.04887506638108827,0.5930585342182662,0.802773377395342,0.0025,0.0,0.0,0.0,0.0025,0.0,0.0,0.0,0.0025,0.0,-0.01,0.01,0.02,0.0,0.0,0.0,0.02,0.0,0.0,0.0,0.02,-1.1874453125,-0.10533789062499999,9.743946406249998,0.04,0.0,0.0,0.0,0.04,0.0,0.0,0.0,0.04
1614726922.276639,9040,1614726922,276219129,base_imu_link,-0.038390537205545,0.04862299228805391,0.5929396870260407,0.8028601988039304,0.0025,0.0,0.0,0.0,0.0025,0.0,0.0,0.0,0.0025,0.0,-0.01,0.0,0.02,0.0,0.0,0.0,0.02,0.0,0.0,0.0,0.02,-1.211577265625,-0.0720128125,9.7247940625,0.04,0.0,0.0,0.0,0.04,0.0,0.0,0.0,0.04
1614726922.296728,9041,1614726922,296282052,base_imu_link,-0.03865668475908752,0.048534462399117184,0.5930194025760033,0.8027939055893893,0.0025,0.0,0.0,0.0,0.0025,0.0,0.0,0.0,0.0025,0.0,-0.01,0.0,0.02,0.0,0.0,0.0,0.02,0.0,0.0,0.0,0.02,-1.2065976562499998,-0.028728515625,9.777271484375,0.04,0.0,0.0,0.0,0.04,0.0,0.0,0.0,0.04
1614726922.3169167,9042,1614726922,316460609,base_imu_link,-0.03866938972674193,0.048524340439578734,0.5932295532041602,0.8026386259633022,0.0025,0.0,0.0,0.0,0.0025,0.0,0.0,0.0,0.0025,0.01,-0.02,0.01,0.02,0.0,0.0,0.0,0.02,0.0,0.0,0.0,0.02,-1.1924249218749998,-0.009576171875,9.78684765625,0.04,0.0,0.0,0.0,0.04,0.0,0.0,0.0,0.04
1614726922.3368752,9043,1614726922,336447477,base_imu_link,-0.03855182911804453,0.04850268725884316,0.5932984187711061,0.802594687301149,0.0025,0.0,0.0,0.0,0.0025,0.0,0.0,0.0,0.0025,0.0,-0.02,0.01,0.02,0.0,0.0,0.0,0.02,0.0,0.0,0.0,0.02,-1.197021484375,-0.028728515625,9.796423828124999,0.04,0.0,0.0,0.0,0.04,0.0,0.0,0.0,0.04
1614726922.3571286,9044,1614726922,356687784,base_imu_link,-0.03850007287830048,0.04843263346231012,0.5933014751572839,0.8025991427733161,0.0025,0.0,0.0,0.0,0.0025,0.0,0.0,0.0,0.0025,-0.0,-0.02,0.01,0.02,0.0,0.0,0.0,0.02,0.0,0.0,0.0,0.02,-1.2020010937499999,-0.04290125,9.75313953125,0.04,0.0,0.0,0.0,0.04,0.0,0.0,0.0,0.04
1614726922.37722,9045,1614726922,376717567,base_imu_link,-0.038700354382180405,0.048392382663122235,0.593446944035242,0.8024843827054281,0.0025,0.0,0.0,0.0,0.0025,0.0,0.0,0.0,0.0025,-0.01,-0.01,0.01,0.02,0.0,0.0,0.0,0.02,0.0,0.0,0.0,0.02,-1.211577265625,-0.0383046875,9.743946406249998,0.04,0.0,0.0,0.0,0.04,0.0,0.0,0.0,0.04
1614726922.3971891,9046,1614726922,396739482,base_imu_link,-0.03881792643733043,0.04841402734297186,0.5933780899147487,0.8025283128666953,0.0025,0.0,0.0,0.0,0.0025,0.0,0.0,0.0,0.0025,-0.01,-0.01,0.01,0.02,0.0,0.0,0.0,0.02,0.0,0.0,0.0,0.02,-1.1924249218749998,-0.0383046875,9.772291874999999,0.04,0.0,0.0,0.0,0.04,0.0,0.0,0.0,0.04
1614726922.4172373,9047,1614726922,416820764,base_imu_link,-0.038840413738769654,0.04828880589549682,0.5934553810605889,0.8024776159968698,0.0025,0.0,0.0,0.0,0.0025,0.0,0.0,0.0,0.0025,-0.0,-0.01,0.01,0.02,0.0,0.0,0.0,0.02,0.0,0.0,0.0,0.02,-1.197021484375,-0.014555781249999998,9.810596562499999,0.04,0.0,0.0,0.0,0.04,0.0,0.0,0.0,0.04
1614726922.4370933,9048,1614726922,436611175,base_imu_link,-0.03877038420810171,0.04834059446337687,0.5934511648076101,0.8024810024067702,0.0025,0.0,0.0,0.0,0.0025,0.0,0.0,0.0,0.0025,0.0,-0.01,0.01,0.02,0.0,0.0,0.0,0.02,0.0,0.0,0.0,0.02,-1.1924249218749998,-0.01915234375,9.782251093749998,0.04,0.0,0.0,0.0,0.04,0.0,0.0,0.0,0.04
1614726922.4573324,9049,1614726922,456856727,base_imu_link,-0.03869190772867961,0.04839913641208639,0.5933068750504988,0.8025879465134593,0.0025,0.0,0.0,0.0,0.0025,0.0,0.0,0.0,0.0025,-0.0,-0.01,0.01,0.02,0.0,0.0,0.0,0.02,0.0,0.0,0.0,0.02,-1.2161738281249999,-0.028728515625,9.758119140624999,0.04,0.0,0.0,0.0,0.04,0.0,0.0,0.0,0.04
1614726922.4774094,9050,1614726922,476977825,base_imu_link,-0.03886545584937984,0.0484874685191327,0.5933050067657675,0.8025756105719253,0.0025,0.0,0.0,0.0,0.0025,0.0,0.0,0.0,0.0025,-0.0,-0.01,0.01,0.02,0.0,0.0,0.0,0.02,0.0,0.0,0.0,0.02,-1.2211534375,-0.05745703125,9.758119140624999,0.04,0.0,0.0,0.0,0.04,0.0,0.0,0.0,0.04
1614726922.497276,9051,1614726922,496892690,base_imu_link,-0.038991480205245045,0.04850234399569612,0.5933762253359222,0.8025159452025985,0.0025,0.0,0.0,0.0,0.0025,0.0,0.0,0.0,0.0025,0.0,-0.02,0.01,0.02,0.0,0.0,0.0,0.02,0.0,0.0,0.0,0.02,-1.22575,-0.05745703125,9.79144421875,0.04,0.0,0.0,0.0,0.04,0.0,0.0,0.0,0.04
1614726922.5173876,9052,1614726922,516944885,base_imu_link,-0.039053055971199735,0.048457378749012875,0.593240381806478,0.8026160917014992,0.0025,0.0,0.0,0.0,0.0025,0.0,0.0,0.0,0.0025,0.01,-0.02,0.01,0.02,0.0,0.0,0.0,0.02,0.0,0.0,0.0,0.02,-1.22575,-0.08120593749999999,9.772291874999999,0.04,0.0,0.0,0.0,0.04,0.0,0.0,0.0,0.04
1614726922.5374112,9053,1614726922,536996841,base_imu_link,-0.039197357829129725,0.04835041760165542,0.5933188687911845,0.80255748965,0.0025,0.0,0.0,0.0,0.0025,0.0,0.0,0.0,0.0025,0.0,-0.02,0.01,0.02,0.0,0.0,0.0,0.02,0.0,0.0,0.0,0.02,-1.230729609375,-0.08618554687499999,9.758119140624999,0.04,0.0,0.0,0.0,0.04,0.0,0.0,0.0,0.04
1614726922.5574064,9054,1614726922,557027101,base_imu_link,-0.03951096751012002,0.04833519500661395,0.5933254753983955,0.8025381440239179,0.0025,0.0,0.0,0.0,0.0025,0.0,0.0,0.0,0.0025,0.0,-0.01,0.01,0.02,0.0,0.0,0.0,0.02,0.0,0.0,0.0,0.02,-1.230729609375,-0.10533789062499999,9.758119140624999,0.04,0.0,0.0,0.0,0.04,0.0,0.0,0.0,0.04
1614726922.577401,9055,1614726922,577022790,base_imu_link,-0.03977281949131031,0.04824991613109373,0.5933351051675421,0.8025232217193942,0.0025,0.0,0.0,0.0,0.0025,0.0,0.0,0.0,0.0025,0.01,-0.01,0.01,0.02,0.0,0.0,0.0,0.02,0.0,0.0,0.0,0.02,-1.235326171875,-0.10533789062499999,9.782251093749998,0.04,0.0,0.0,0.0,0.04,0.0,0.0,0.0,0.04
1614726922.5975137,9056,1614726922,597103834,base_imu_link,-0.040082204176047395,0.048238188247408144,0.5932716978007223,0.8025554103559739,0.0025,0.0,0.0,0.0,0.0025,0.0,0.0,0.0,0.0025,0.01,-0.01,0.01,0.02,0.0,0.0,0.0,0.02,0.0,0.0,0.0,0.02,-1.235326171875,-0.090782109375,9.777271484375,0.04,0.0,0.0,0.0,0.04,0.0,0.0,0.0,0.04
1614726922.6175272,9057,1614726922,617136240,base_imu_link,-0.040329968857025764,0.048271241925114006,0.5933441626779586,0.802487436307255,0.0025,0.0,0.0,0.0,0.0025,0.0,0.0,0.0,0.0025,0.0,-0.01,0.01,0.02,0.0,0.0,0.0,0.02,0.0,0.0,0.0,0.02,-1.230729609375,-0.08618554687499999,9.719814453124998,0.04,0.0,0.0,0.0,0.04,0.0,0.0,0.0,0.04
1614726922.637762,9058,1614726922,637384414,base_imu_link,-0.040621040925799844,0.04838139208998043,0.5932735828688467,0.8025183037186764,0.0025,0.0,0.0,0.0,0.0025,0.0,0.0,0.0,0.0025,0.0,0.0,0.0,0.02,0.0,0.0,0.0,0.02,0.0,0.0,0.0,0.02,-1.230729609375,-0.06243664062499999,9.733987187499999,0.04,0.0,0.0,0.0,0.04,0.0,0.0,0.0,0.04
1614726922.6579287,9059,1614726922,657551527,base_imu_link,-0.040711812270658135,0.04853216857194187,0.593057467703346,0.8026643239590493,0.0025,0.0,0.0,0.0,0.0025,0.0,0.0,0.0,0.0025,0.0,0.0,0.0,0.02,0.0,0.0,0.0,0.02,0.0,0.0,0.0,0.02,-1.2161738281249999,-0.047880859374999994,9.863457031249999,0.04,0.0,0.0,0.0,0.04,0.0,0.0,0.0,0.04
1614726922.6777682,9060,1614726922,677383899,base_imu_link,-0.040650245314565146,0.04857682834808281,0.5931933131530107,0.8025643541386952,0.0025,0.0,0.0,0.0,0.0025,0.0,0.0,0.0,0.0025,0.01,-0.01,0.01,0.02,0.0,0.0,0.0,0.02,0.0,0.0,0.0,0.02,-1.2020010937499999,-0.0383046875,9.8780128125,0.04,0.0,0.0,0.0,0.04,0.0,0.0,0.0,0.04
1614726922.6979578,9061,1614726922,697432756,base_imu_link,-0.040471162786818324,0.04859970392399349,0.593397938881137,0.802420737451869,0.0025,0.0,0.0,0.0,0.0025,0.0,0.0,0.0,0.0025,0.0,-0.01,0.01,0.02,0.0,0.0,0.0,0.02,0.0,0.0,0.0,0.02,-1.2065976562499998,-0.014555781249999998,9.825152343749998,0.04,0.0,0.0,0.0,0.04,0.0,0.0,0.0,0.04
1614726922.7178078,9062,1614726922,717428207,base_imu_link,-0.04021783204834706,0.0486779870595275,0.5935282720793253,0.8023323312715833,0.0025,0.0,0.0,0.0,0.0025,0.0,0.0,0.0,0.0025,0.0,-0.01,0.01,0.02,0.0,0.0,0.0,0.02,0.0,0.0,0.0,0.02,-1.211577265625,-0.014555781249999998,9.777271484375,0.04,0.0,0.0,0.0,0.04,0.0,0.0,0.0,0.04
1614726922.7378352,9063,1614726922,737455129,base_imu_link,-0.040017529698106444,0.04871852303464811,0.5933827656220619,0.802447503761397,0.0025,0.0,0.0,0.0,0.0025,0.0,0.0,0.0,0.0025,0.01,-0.01,0.01,0.02,0.0,0.0,0.0,0.02,0.0,0.0,0.0,0.02,-1.211577265625,-0.023748906249999997,9.71483484375,0.04,0.0,0.0,0.0,0.04,0.0,0.0,0.0,0.04
1614726922.7579527,9064,1614726922,757539272,base_imu_link,-0.03979891735838864,0.048880815574014976,0.5932299264371088,0.802561503204173,0.0025,0.0,0.0,0.0,0.0025,0.0,0.0,0.0,0.0025,0.01,-0.01,0.01,0.02,0.0,0.0,0.0,0.02,0.0,0.0,0.0,0.02,-1.1924249218749998,-0.01915234375,9.743946406249998,0.04,0.0,0.0,0.0,0.04,0.0,0.0,0.0,0.04
1614726922.7777038,9065,1614726922,777321100,base_imu_link,-0.03961136797180153,0.04891084069390092,0.5932944889516798,0.8025212262423863,0.0025,0.0,0.0,0.0,0.0025,0.0,0.0,0.0,0.0025,0.01,-0.01,0.01,0.02,0.0,0.0,0.0,0.02,0.0,0.0,0.0,0.02,-1.1682929687499999,0.0,9.78684765625,0.04,0.0,0.0,0.0,0.04,0.0,0.0,0.0,0.04
1614726922.7977674,9066,1614726922,797352075,base_imu_link,-0.039254538316766174,0.04884915921349706,0.5934309566566737,0.8024416119240185,0.0025,0.0,0.0,0.0,0.0025,0.0,0.0,0.0,0.0025,0.01,-0.02,0.02,0.02,0.0,0.0,0.0,0.02,0.0,0.0,0.0,0.02,-1.1541202343749999,0.023748906249999997,9.78684765625,0.04,0.0,0.0,0.0,0.04,0.0,0.0,0.0,0.04
1614726922.817919,9067,1614726922,817524909,base_imu_link,-0.03877162114182559,0.0487727500308024,0.5934962418263994,0.8024214548392931,0.0025,0.0,0.0,0.0,0.0025,0.0,0.0,0.0,0.0025,0.0,-0.01,0.03,0.02,0.0,0.0,0.0,0.02,0.0,0.0,0.0,0.02,-1.1541202343749999,0.004979609375,9.78684765625,0.04,0.0,0.0,0.0,0.04,0.0,0.0,0.0,0.04
1614726922.8381202,9068,1614726922,837736606,base_imu_link,-0.038410473077402876,0.04871465856483481,0.593562745428486,0.8023931610116577,0.0025,0.0,0.0,0.0,0.0025,0.0,0.0,0.0,0.0025,0.01,-0.02,0.03,0.02,0.0,0.0,0.0,0.02,0.0,0.0,0.0,0.02,-1.177869140625,-0.028728515625,9.820555781249999,0.04,0.0,0.0,0.0,0.04,0.0,0.0,0.0,0.04
1614726922.8582172,9069,1614726922,857803821,base_imu_link,-0.038133321370049725,0.048486317143886466,0.5935708125244412,0.802414243000575,0.0025,0.0,0.0,0.0,0.0025,0.0,0.0,0.0,0.0025,0.01,-0.03,0.02,0.02,0.0,0.0,0.0,0.02,0.0,0.0,0.0,0.02,-1.2020010937499999,-0.067033203125,9.767695312499999,0.04,0.0,0.0,0.0,0.04,0.0,0.0,0.0,0.04
1614726922.87826,9070,1614726922,877846956,base_imu_link,-0.03815578280092627,0.04836115256706332,0.5936481258967184,0.8023635321850985,0.0025,0.0,0.0,0.0,0.0025,0.0,0.0,0.0,0.0025,0.02,-0.03,0.02,0.02,0.0,0.0,0.0,0.02,0.0,0.0,0.0,0.02,-1.1924249218749998,-0.11989367187499998,9.74854296875,0.04,0.0,0.0,0.0,0.04,0.0,0.0,0.0,0.04
1614726922.898255,9071,1614726922,897841691,base_imu_link,-0.038318252286360883,0.04813235780197296,0.5937338233978857,0.8023061352298572,0.0025,0.0,0.0,0.0,0.0025,0.0,0.0,0.0,0.0025,0.02,-0.03,0.01,0.02,0.0,0.0,0.0,0.02,0.0,0.0,0.0,0.02,-1.211577265625,-0.14364257812499998,9.767695312499999,0.04,0.0,0.0,0.0,0.04,0.0,0.0,0.0,0.04
1614726922.9182544,9072,1614726922,917864799,base_imu_link,-0.038550690787193975,0.04785170909056899,0.5938236116275184,0.802245334327718,0.0025,0.0,0.0,0.0,0.0025,0.0,0.0,0.0,0.0025,0.03,-0.03,0.01,0.02,0.0,0.0,0.0,0.02,0.0,0.0,0.0,0.02,-1.2211534375,-0.16739148437499998,9.79144421875,0.04,0.0,0.0,0.0,0.04,0.0,0.0,0.0,0.04
1614726922.9383535,9073,1614726922,937939643,base_imu_link,-0.038884117347590404,0.04760617613121843,0.5935643676209705,0.8024356789817984,0.0025,0.0,0.0,0.0,0.0025,0.0,0.0,0.0,0.0025,0.03,-0.03,0.0,0.02,0.0,0.0,0.0,0.02,0.0,0.0,0.0,0.02,-1.2211534375,-0.14364257812499998,9.772291874999999,0.04,0.0,0.0,0.0,0.04,0.0,0.0,0.0,0.04
1614726922.9583817,9074,1614726922,957967281,base_imu_link,-0.039211846250556355,0.04747244772502623,0.5935079672547925,0.8024693705218297,0.0025,0.0,0.0,0.0,0.0025,0.0,0.0,0.0,0.0025,0.02,-0.02,0.0,0.02,0.0,0.0,0.0,0.02,0.0,0.0,0.0,0.02,-1.22575,-0.11031749999999999,9.733987187499999,0.04,0.0,0.0,0.0,0.04,0.0,0.0,0.0,0.04
1614726922.9781964,9075,1614726922,977818250,base_imu_link,-0.03950304125371922,0.04758245716549546,0.593437358834704,0.802500791676302,0.0025,0.0,0.0,0.0,0.0025,0.0,0.0,0.0,0.0025,0.02,-0.01,-0.0,0.02,0.0,0.0,0.0,0.02,0.0,0.0,0.0,0.02,-1.230729609375,-0.08618554687499999,9.719814453124998,0.04,0.0,0.0,0.0,0.04,0.0,0.0,0.0,0.04
1614726922.9984486,9076,1614726922,998035907,base_imu_link,-0.03978426836579204,0.04780741134568691,0.593499691293204,0.8024274296445097,0.0025,0.0,0.0,0.0,0.0025,0.0,0.0,0.0,0.0025,0.01,0.0,-0.0,0.02,0.0,0.0,0.0,0.02,0.0,0.0,0.0,0.02,-1.24490234375,-0.05286046874999999,9.767695312499999,0.04,0.0,0.0,0.0,0.04,0.0,0.0,0.0,0.04
1614726923.018711,9077,1614726923,18256187,base_imu_link,-0.03985546957989491,0.04818770520562252,0.5935493923506466,0.8023643844611749,0.0025,0.0,0.0,0.0,0.0025,0.0,0.0,0.0,0.0025,0.01,-0.0,0.0,0.02,0.0,0.0,0.0,0.02,0.0,0.0,0.0,0.02,-1.24490234375,-0.004979609375,9.810596562499999,0.04,0.0,0.0,0.0,0.04,0.0,0.0,0.0,0.04
1614726923.038531,9078,1614726923,38104534,base_imu_link,-0.03980495023878558,0.048549741604924763,0.593597694021784,0.8023093332241643,0.0025,0.0,0.0,0.0,0.0025,0.0,0.0,0.0,0.0025,0.01,-0.0,0.01,0.02,0.0,0.0,0.0,0.02,0.0,0.0,0.0,0.02,-1.24030578125,0.01915234375,9.82974890625,0.04,0.0,0.0,0.0,0.04,0.0,0.0,0.0,0.04
1614726923.0585394,9079,1614726923,58128118,base_imu_link,-0.03951091366476184,0.04887532866284068,0.5936434007701606,0.8022702803117622,0.0025,0.0,0.0,0.0,0.0025,0.0,0.0,0.0,0.0025,0.01,-0.01,0.01,0.02,0.0,0.0,0.0,0.02,0.0,0.0,0.0,0.02,-1.230729609375,0.0,9.820555781249999,0.04,0.0,0.0,0.0,0.04,0.0,0.0,0.0,0.04
1614726923.0787735,9080,1614726923,78359603,base_imu_link,-0.039295515631790484,0.04914228811911721,0.5938332239936794,0.8021240552750691,0.0025,0.0,0.0,0.0,0.0025,0.0,0.0,0.0,0.0025,0.01,-0.01,0.02,0.02,0.0,0.0,0.0,0.02,0.0,0.0,0.0,0.02,-1.2161738281249999,-0.0383046875,9.772291874999999,0.04,0.0,0.0,0.0,0.04,0.0,0.0,0.0,0.04
1614726923.0989811,9081,1614726923,98565340,base_imu_link,-0.03935064136045108,0.04931697092659232,0.5941726470712801,0.8018592325810402,0.0025,0.0,0.0,0.0,0.0025,0.0,0.0,0.0,0.0025,0.01,0.0,0.02,0.02,0.0,0.0,0.0,0.02,0.0,0.0,0.0,0.02,-1.2065976562499998,-0.04290125,9.796423828124999,0.04,0.0,0.0,0.0,0.04,0.0,0.0,0.0,0.04
1614726923.1189618,9082,1614726923,118408441,base_imu_link,-0.03927635739994329,0.04937224978059016,0.5940983631107722,0.8019145114350381,0.0025,0.0,0.0,0.0,0.0025,0.0,0.0,0.0,0.0025,0.01,-0.0,0.02,0.02,0.0,0.0,0.0,0.02,0.0,0.0,0.0,0.02,-1.1828487499999998,-0.009576171875,9.810596562499999,0.04,0.0,0.0,0.0,0.04,0.0,0.0,0.0,0.04
1614726923.138703,9083,1614726923,138277292,base_imu_link,-0.03911992549641948,0.04927045275676466,0.594380188860468,0.8017195550842531,0.0025,0.0,0.0,0.0,0.0025,0.0,0.0,0.0,0.0025,0.0,-0.01,0.02,0.02,0.0,0.0,0.0,0.02,0.0,0.0,0.0,0.02,-1.16369640625,0.004979609375,9.8014034375,0.04,0.0,0.0,0.0,0.04,0.0,0.0,0.0,0.04
1614726923.158939,9084,1614726923,158516168,base_imu_link,-0.03883731161452992,0.04915409421961763,0.5945908336982652,0.8015842305896534,0.0025,0.0,0.0,0.0,0.0025,0.0,0.0,0.0,0.0025,0.0,-0.01,0.02,0.02,0.0,0.0,0.0,0.02,0.0,0.0,0.0,0.02,-1.1541202343749999,-0.028728515625,9.758119140624999,0.04,0.0,0.0,0.0,0.04,0.0,0.0,0.0,0.04
1614726923.1791756,9085,1614726923,178750276,base_imu_link,-0.038685968368019796,0.04894082498180255,0.5946701253796316,0.8015457775339486,0.0025,0.0,0.0,0.0,0.0025,0.0,0.0,0.0,0.0025,0.0,-0.01,0.02,0.02,0.0,0.0,0.0,0.02,0.0,0.0,0.0,0.02,-1.1491406249999998,-0.047880859374999994,9.743946406249998,0.04,0.0,0.0,0.0,0.04,0.0,0.0,0.0,0.04
1614726923.1991653,9086,1614726923,198716163,base_imu_link,-0.038678717441097174,0.04862039992080209,0.594827811473914,0.8014486185812583,0.0025,0.0,0.0,0.0,0.0025,0.0,0.0,0.0,0.0025,0.0,-0.01,0.01,0.02,0.0,0.0,0.0,0.02,0.0,0.0,0.0,0.02,-1.1349678906249998,-0.0383046875,9.738966796875,0.04,0.0,0.0,0.0,0.04,0.0,0.0,0.0,0.04
1614726923.2192137,9087,1614726923,218788862,base_imu_link,-0.03839698945239488,0.04839584488196058,0.5947659402170858,0.8015216714205796,0.0025,0.0,0.0,0.0,0.0025,0.0,0.0,0.0,0.0025,0.01,-0.01,0.0,0.02,0.0,0.0,0.0,0.02,0.0,0.0,0.0,0.02,-1.1349678906249998,-0.004979609375,9.733987187499999,0.04,0.0,0.0,0.0,0.04,0.0,0.0,0.0,0.04
1614726923.238814,9088,1614726923,238463640,base_imu_link,-0.03809722185229025,0.04829309858367141,0.59469676065964,0.8015935012069747,0.0025,0.0,0.0,0.0,0.0025,0.0,0.0,0.0,0.0025,0.02,-0.01,-0.0,0.02,0.0,0.0,0.0,0.02,0.0,0.0,0.0,0.02,-1.1349678906249998,0.004979609375,9.796423828124999,0.04,0.0,0.0,0.0,0.04,0.0,0.0,0.0,0.04
1614726923.259104,9089,1614726923,258683681,base_imu_link,-0.03762794806815735,0.04809896787844245,0.5946994731466376,0.8016253261046088,0.0025,0.0,0.0,0.0,0.0025,0.0,0.0,0.0,0.0025,0.02,-0.02,-0.0,0.02,0.0,0.0,0.0,0.02,0.0,0.0,0.0,0.02,-1.139564453125,-0.023748906249999997,9.815576171875,0.04,0.0,0.0,0.0,0.04,0.0,0.0,0.0,0.04
1614726923.2791522,9090,1614726923,278694868,base_imu_link,-0.0373897866641994,0.047950759504493796,0.5944945733377921,0.8017973127842625,0.0025,0.0,0.0,0.0,0.0025,0.0,0.0,0.0,0.0025,0.01,-0.02,-0.01,0.02,0.0,0.0,0.0,0.02,0.0,0.0,0.0,0.02,-1.1445440624999998,-0.014555781249999998,9.815576171875,0.04,0.0,0.0,0.0,0.04,0.0,0.0,0.0,0.04
1614726923.2991385,9091,1614726923,298708677,base_imu_link,-0.03721190464462863,0.047865927320500934,0.5944265269317044,0.8018611047022914,0.0025,0.0,0.0,0.0,0.0025,0.0,0.0,0.0,0.0025,0.01,-0.02,-0.0,0.02,0.0,0.0,0.0,0.02,0.0,0.0,0.0,0.02,-1.16369640625,-0.009576171875,9.834728515624999,0.04,0.0,0.0,0.0,0.04,0.0,0.0,0.0,0.04
1614726923.3192205,9092,1614726923,318785190,base_imu_link,-0.03704237359634585,0.047774599312407066,0.5944984289536569,0.8018210948774803,0.0025,0.0,0.0,0.0,0.0025,0.0,0.0,0.0,0.0025,0.02,-0.02,-0.0,0.02,0.0,0.0,0.0,0.02,0.0,0.0,0.0,0.02,-1.177869140625,-0.033708125,9.796423828124999,0.04,0.0,0.0,0.0,0.04,0.0,0.0,0.0,0.04
1614726923.3391614,9093,1614726923,338828563,base_imu_link,-0.036903859754387904,0.047769383463299196,0.5942173835696045,0.8020360915834512,0.0025,0.0,0.0,0.0,0.0025,0.0,0.0,0.0,0.0025,0.02,-0.02,-0.0,0.02,0.0,0.0,0.0,0.02,0.0,0.0,0.0,0.02,-1.1874453125,-0.05745703125,9.71023828125,0.04,0.0,0.0,0.0,0.04,0.0,0.0,0.0,0.04
1614726923.359247,9094,1614726923,358831882,base_imu_link,-0.03707336247118012,0.047860760305498934,0.5941454621765511,0.8020761081051302,0.0025,0.0,0.0,0.0,0.0025,0.0,0.0,0.0,0.0025,0.02,-0.01,-0.01,0.02,0.0,0.0,0.0,0.02,0.0,0.0,0.0,0.02,-1.2161738281249999,-0.047880859374999994,9.6573778125,0.04,0.0,0.0,0.0,0.04,0.0,0.0,0.0,0.04
1614726923.379446,9095,1614726923,379049301,base_imu_link,-0.03728911323214275,0.04813426023794843,0.59427319457754,0.8019551017558969,0.0025,0.0,0.0,0.0,0.0025,0.0,0.0,0.0,0.0025,0.02,-0.01,-0.0,0.02,0.0,0.0,0.0,0.02,0.0,0.0,0.0,0.02,-1.22575,-0.023748906249999997,9.700662109375,0.04,0.0,0.0,0.0,0.04,0.0,0.0,0.0,0.04
1614726923.3996358,9096,1614726923,399247884,base_imu_link,-0.0374222947198194,0.048469350312550556,0.5941866629129019,0.8019928326080051,0.0025,0.0,0.0,0.0,0.0025,0.0,0.0,0.0,0.0025,0.01,-0.01,0.0,0.02,0.0,0.0,0.0,0.02,0.0,0.0,0.0,0.02,-1.211577265625,-0.0383046875,9.767695312499999,0.04,0.0,0.0,0.0,0.04,0.0,0.0,0.0,0.04
1614726923.4197087,9097,1614726923,419306993,base_imu_link,-0.03759596447884206,0.04855748705776992,0.5941847041835382,0.8019808297084545,0.0025,0.0,0.0,0.0,0.0025,0.0,0.0,0.0,0.0025,0.01,-0.01,0.01,0.02,0.0,0.0,0.0,0.02,0.0,0.0,0.0,0.02,-1.2020010937499999,-0.04290125,9.834728515624999,0.04,0.0,0.0,0.0,0.04,0.0,0.0,0.0,0.04
1614726923.4397488,9098,1614726923,439329385,base_imu_link,-0.037604438786436274,0.048550924584574225,0.5943246671930399,0.8018771126995847,0.0025,0.0,0.0,0.0,0.0025,0.0,0.0,0.0,0.0025,0.01,-0.02,0.01,0.02,0.0,0.0,0.0,0.02,0.0,0.0,0.0,0.02,-1.197021484375,-0.05286046874999999,9.82974890625,0.04,0.0,0.0,0.0,0.04,0.0,0.0,0.0,0.04
1614726923.4597387,9099,1614726923,459348917,base_imu_link,-0.03770098229147865,0.048370629242418715,0.5944761603157148,0.8017711724533596,0.0025,0.0,0.0,0.0,0.0025,0.0,0.0,0.0,0.0025,0.01,-0.02,0.01,0.02,0.0,0.0,0.0,0.02,0.0,0.0,0.0,0.02,-1.2020010937499999,-0.04290125,9.820555781249999,0.04,0.0,0.0,0.0,0.04,0.0,0.0,0.0,0.04
1614726923.4798174,9100,1614726923,479416847,base_imu_link,-0.03777094988186957,0.04831875122669224,0.5944803791858198,0.8017678793690842,0.0025,0.0,0.0,0.0,0.0025,0.0,0.0,0.0,0.0025,0.01,-0.02,0.01,0.02,0.0,0.0,0.0,0.02,0.0,0.0,0.0,0.02,-1.2020010937499999,-0.047880859374999994,9.810596562499999,0.04,0.0,0.0,0.0,0.04,0.0,0.0,0.0,0.04
1614726923.4999962,9101,1614726923,499609708,base_imu_link,-0.037915091606811266,0.048211685559386395,0.5945587679508908,0.8017093928953865,0.0025,0.0,0.0,0.0,0.0025,0.0,0.0,0.0,0.0025,-0.0,-0.02,0.02,0.02,0.0,0.0,0.0,0.02,0.0,0.0,0.0,0.02,-1.1924249218749998,-0.05745703125,9.815576171875,0.04,0.0,0.0,0.0,0.04,0.0,0.0,0.0,0.04
1614726923.5200899,9102,1614726923,519681453,base_imu_link,-0.038073108300582595,0.04798605433864914,0.594574413263839,0.8017038381505367,0.0025,0.0,0.0,0.0,0.0025,0.0,0.0,0.0,0.0025,-0.0,-0.02,0.02,0.02,0.0,0.0,0.0,0.02,0.0,0.0,0.0,0.02,-1.211577265625,-0.06243664062499999,9.806,0.04,0.0,0.0,0.0,0.04,0.0,0.0,0.0,0.04
1614726923.5398304,9103,1614726923,539412498,base_imu_link,-0.038134703342106016,0.047940824241672425,0.5944386663822423,0.8018042739233434,0.0025,0.0,0.0,0.0,0.0025,0.0,0.0,0.0,0.0025,0.01,-0.03,0.01,0.02,0.0,0.0,0.0,0.02,0.0,0.0,0.0,0.02,-1.211577265625,-0.076609375,9.78684765625,0.04,0.0,0.0,0.0,0.04,0.0,0.0,0.0,0.04
1614726923.5601027,9104,1614726923,559708595,base_imu_link,-0.038274644005936054,0.047837074392723306,0.5944470245806726,0.8017976059498738,0.0025,0.0,0.0,0.0,0.0025,0.0,0.0,0.0,0.0025,0.01,-0.03,0.01,0.02,0.0,0.0,0.0,0.02,0.0,0.0,0.0,0.02,-1.2065976562499998,-0.06243664062499999,9.78684765625,0.04,0.0,0.0,0.0,0.04,0.0,0.0,0.0,0.04
1614726923.580146,9105,1614726923,579735517,base_imu_link,-0.03834044370962567,0.04778854493845908,0.5943812248769827,0.8018461354041381,0.0025,0.0,0.0,0.0,0.0025,0.0,0.0,0.0,0.0025,0.01,-0.02,0.0,0.02,0.0,0.0,0.0,0.02,0.0,0.0,0.0,0.02,-1.197021484375,-0.04290125,9.758119140624999,0.04,0.0,0.0,0.0,0.04,0.0,0.0,0.0,0.04
1614726923.600221,9106,1614726923,599789142,base_imu_link,-0.03841874887583046,0.047729970600008186,0.5945253318643742,0.8017390344824767,0.0025,0.0,0.0,0.0,0.0025,0.0,0.0,0.0,0.0025,0.01,-0.02,0.0,0.02,0.0,0.0,0.0,0.02,0.0,0.0,0.0,0.02,-1.197021484375,-0.04290125,9.76309875,0.04,0.0,0.0,0.0,0.04,0.0,0.0,0.0,0.04
1614726923.6203303,9107,1614726923,619918823,base_imu_link,-0.03853640732274936,0.047751431972477346,0.5944565214388915,0.8017831316347369,0.0025,0.0,0.0,0.0,0.0025,0.0,0.0,0.0,0.0025,0.0,-0.01,0.01,0.02,0.0,0.0,0.0,0.02,0.0,0.0,0.0,0.02,-1.1828487499999998,-0.04290125,9.772291874999999,0.04,0.0,0.0,0.0,0.04,0.0,0.0,0.0,0.04
1614726923.6404324,9108,1614726923,640040636,base_imu_link,-0.038554521831596314,0.04762957032638367,0.5944636866536035,0.8017841967306834,0.0025,0.0,0.0,0.0,0.0025,0.0,0.0,0.0,0.0025,-0.0,-0.02,0.01,0.02,0.0,0.0,0.0,0.02,0.0,0.0,0.0,0.02,-1.1682929687499999,-0.028728515625,9.758119140624999,0.04,0.0,0.0,0.0,0.04,0.0,0.0,0.0,0.04
1614726923.6604908,9109,1614726923,660092592,base_imu_link,-0.0384508127071661,0.047489598545676415,0.5944696738316566,0.8017930405825513,0.0025,0.0,0.0,0.0,0.0025,0.0,0.0,0.0,0.0025,-0.01,-0.02,0.01,0.02,0.0,0.0,0.0,0.02,0.0,0.0,0.0,0.02,-1.1541202343749999,-0.028728515625,9.71483484375,0.04,0.0,0.0,0.0,0.04,0.0,0.0,0.0,0.04
1614726923.6805053,9110,1614726923,680076599,base_imu_link,-0.03846065977157885,0.04737444777885032,0.5943368479849369,0.8018978429169852,0.0025,0.0,0.0,0.0,0.0025,0.0,0.0,0.0,0.0025,-0.01,-0.01,0.0,0.02,0.0,0.0,0.0,0.02,0.0,0.0,0.0,0.02,-1.16369640625,-0.033708125,9.62903234375,0.04,0.0,0.0,0.0,0.04,0.0,0.0,0.0,0.04
1614726923.700653,9111,1614726923,700150251,base_imu_link,-0.038574208275161066,0.04739931111805176,0.5941980408411556,0.801993780538235,0.0025,0.0,0.0,0.0,0.0025,0.0,0.0,0.0,0.0025,-0.01,-0.0,0.0,0.02,0.0,0.0,0.0,0.02,0.0,0.0,0.0,0.02,-1.1874453125,-0.004979609375,9.6573778125,0.04,0.0,0.0,0.0,0.04,0.0,0.0,0.0,0.04
1614726923.7205248,9112,1614726923,720139741,base_imu_link,-0.03858972331593327,0.047713028934080214,0.5941807761272557,0.8019872227193818,0.0025,0.0,0.0,0.0,0.0025,0.0,0.0,0.0,0.0025,-0.0,0.0,0.01,0.02,0.0,0.0,0.0,0.02,0.0,0.0,0.0,0.02,-1.2065976562499998,0.014555781249999998,9.777271484375,0.04,0.0,0.0,0.0,0.04,0.0,0.0,0.0,0.04
1614726923.7403784,9113,1614726923,739857912,base_imu_link,-0.03848761244360005,0.048005229182060544,0.5942322010617488,0.8019365890647954,0.0025,0.0,0.0,0.0,0.0025,0.0,0.0,0.0,0.0025,0.0,-0.0,0.01,0.02,0.0,0.0,0.0,0.02,0.0,0.0,0.0,0.02,-1.197021484375,0.004979609375,9.897165156249999,0.04,0.0,0.0,0.0,0.04,0.0,0.0,0.0,0.04
1614726923.7604294,9114,1614726923,759917259,base_imu_link,-0.03842182375335118,0.048053732787687584,0.5942979897519977,0.8018880854591683,0.0025,0.0,0.0,0.0,0.0025,0.0,0.0,0.0,0.0025,0.0,-0.01,0.01,0.02,0.0,0.0,0.0,0.02,0.0,0.0,0.0,0.02,-1.211577265625,0.014555781249999998,9.901761718749999,0.04,0.0,0.0,0.0,0.04,0.0,0.0,0.0,0.04
1614726923.780769,9115,1614726923,780250787,base_imu_link,-0.038155843512104964,0.048142656080181916,0.5942184589026075,0.801954387338105,0.0025,0.0,0.0,0.0,0.0025,0.0,0.0,0.0,0.0025,0.0,-0.02,0.01,0.02,0.0,0.0,0.0,0.02,0.0,0.0,0.0,0.02,-1.2211534375,-0.014555781249999998,9.782251093749998,0.04,0.0,0.0,0.0,0.04,0.0,0.0,0.0,0.04
1614726923.8007832,9116,1614726923,800348758,base_imu_link,-0.03820640555096429,0.048321169415086386,0.5944880333652433,0.8017414254900136,0.0025,0.0,0.0,0.0,0.0025,0.0,0.0,0.0,0.0025,0.01,-0.01,0.01,0.02,0.0,0.0,0.0,0.02,0.0,0.0,0.0,0.02,-1.24030578125,-0.023748906249999997,9.71023828125,0.04,0.0,0.0,0.0,0.04,0.0,0.0,0.0,0.04
1614726923.820747,9117,1614726923,820356130,base_imu_link,-0.03821357361310531,0.048641525684973305,0.5943303990827558,0.8018385757101525,0.0025,0.0,0.0,0.0,0.0025,0.0,0.0,0.0,0.0025,0.02,-0.01,0.01,0.02,0.0,0.0,0.0,0.02,0.0,0.0,0.0,0.02,-1.235326171875,-0.04290125,9.729390624999999,0.04,0.0,0.0,0.0,0.04,0.0,0.0,0.0,0.04
1614726923.8407965,9118,1614726923,840379476,base_imu_link,-0.038311951188883586,0.04889331425136553,0.594526739759546,0.8016729968812116,0.0025,0.0,0.0,0.0,0.0025,0.0,0.0,0.0,0.0025,0.03,-0.01,0.0,0.02,0.0,0.0,0.0,0.02,0.0,0.0,0.0,0.02,-1.230729609375,-0.014555781249999998,9.75313953125,0.04,0.0,0.0,0.0,0.04,0.0,0.0,0.0,0.04
1614726923.8608947,9119,1614726923,860405445,base_imu_link,-0.03821010213619108,0.04918556239348919,0.5945776077830298,0.8016222532276581,0.0025,0.0,0.0,0.0,0.0025,0.0,0.0,0.0,0.0025,0.02,-0.01,0.01,0.02,0.0,0.0,0.0,0.02,0.0,0.0,0.0,0.02,-1.2211534375,-0.004979609375,9.758119140624999,0.04,0.0,0.0,0.0,0.04,0.0,0.0,0.0,0.04
1614726923.8808124,9120,1614726923,880400180,base_imu_link,-0.038173942037174495,0.04942926071801091,0.5945627025549757,0.8016200415812572,0.0025,0.0,0.0,0.0,0.0025,0.0,0.0,0.0,0.0025,0.02,-0.01,0.01,0.02,0.0,0.0,0.0,0.02,0.0,0.0,0.0,0.02,-1.211577265625,-0.004979609375,9.75313953125,0.04,0.0,0.0,0.0,0.04,0.0,0.0,0.0,0.04
1614726923.9009163,9121,1614726923,900477647,base_imu_link,-0.03813778271237113,0.04967295382477969,0.5945477122610686,0.8016178173127358,0.0025,0.0,0.0,0.0,0.0025,0.0,0.0,0.0,0.0025,0.01,-0.0,0.01,0.02,0.0,0.0,0.0,0.02,0.0,0.0,0.0,0.02,-1.1924249218749998,-0.028728515625,9.79144421875,0.04,0.0,0.0,0.0,0.04,0.0,0.0,0.0,0.04
1614726923.9208837,9122,1614726923,920459032,base_imu_link,-0.03803403236570676,0.04953303073232478,0.5945540664658482,0.8016266919816222,0.0025,0.0,0.0,0.0,0.0025,0.0,0.0,0.0,0.0025,0.01,-0.01,0.01,0.02,0.0,0.0,0.0,0.02,0.0,0.0,0.0,0.02,-1.173272578125,-0.0383046875,9.825152343749998,0.04,0.0,0.0,0.0,0.04,0.0,0.0,0.0,0.04
1614726923.9409664,9123,1614726923,940521478,base_imu_link,-0.0379959306355229,0.049344536718210714,0.5944947527844119,0.8016841116443602,0.0025,0.0,0.0,0.0,0.0025,0.0,0.0,0.0,0.0025,0.01,-0.01,0.01,0.02,0.0,0.0,0.0,0.02,0.0,0.0,0.0,0.02,-1.1587167968749998,-0.05286046874999999,9.8014034375,0.04,0.0,0.0,0.0,0.04,0.0,0.0,0.0,0.04
1614726923.9611378,9124,1614726923,960728406,base_imu_link,-0.037905998409942125,0.049086060233912064,0.5944385257682998,0.8017459279956891,0.0025,0.0,0.0,0.0,0.0025,0.0,0.0,0.0,0.0025,0.01,-0.01,0.01,0.02,0.0,0.0,0.0,0.02,0.0,0.0,0.0,0.02,-1.1491406249999998,-0.05745703125,9.810596562499999,0.04,0.0,0.0,0.0,0.04,0.0,0.0,0.0,0.04
1614726923.9811926,9125,1614726923,980747699,base_imu_link,-0.03794220200449079,0.04884236174396375,0.594453324278008,0.8017481264469207,0.0025,0.0,0.0,0.0,0.0025,0.0,0.0,0.0,0.0025,0.01,-0.0,0.01,0.02,0.0,0.0,0.0,0.02,0.0,0.0,0.0,0.02,-1.1587167968749998,-0.0720128125,9.820555781249999,0.04,0.0,0.0,0.0,0.04,0.0,0.0,0.0,0.04
1614726924.0010846,9126,1614726924,774145,base_imu_link,-0.03803026976276232,0.048668633898419494,0.5944649410356483,0.8017459052191761,0.0025,0.0,0.0,0.0,0.0025,0.0,0.0,0.0,0.0025,0.01,-0.01,0.0,0.02,0.0,0.0,0.0,0.02,0.0,0.0,0.0,0.02,-1.1541202343749999,-0.076609375,9.782251093749998,0.04,0.0,0.0,0.0,0.04,0.0,0.0,0.0,0.04
1614726924.0210483,9127,1614726924,20622253,base_imu_link,-0.03812799699705789,0.04837970342643594,0.5943438743726585,0.8018485013623584,0.0025,0.0,0.0,0.0,0.0025,0.0,0.0,0.0,0.0025,0.01,-0.01,-0.0,0.02,0.0,0.0,0.0,0.02,0.0,0.0,0.0,0.02,-1.1587167968749998,-0.05286046874999999,9.758119140624999,0.04,0.0,0.0,0.0,0.04,0.0,0.0,0.0,0.04
1614726924.0413234,9128,1614726924,40879964,base_imu_link,-0.038090065263844855,0.048191187437969234,0.5942842371508674,0.8019058559803177,0.0025,0.0,0.0,0.0,0.0025,0.0,0.0,0.0,0.0025,0.01,-0.01,0.0,0.02,0.0,0.0,0.0,0.02,0.0,0.0,0.0,0.02,-1.16369640625,-0.028728515625,9.772291874999999,0.04,0.0,0.0,0.0,0.04,0.0,0.0,0.0,0.04
1614726924.0612745,9129,1614726924,60903310,base_imu_link,-0.038015875486570205,0.04824636603224057,0.5942100473735928,0.8019610345745891,0.0025,0.0,0.0,0.0,0.0025,0.0,0.0,0.0,0.0025,0.01,-0.01,0.0,0.02,0.0,0.0,0.0,0.02,0.0,0.0,0.0,0.02,-1.16369640625,-0.023748906249999997,9.8014034375,0.04,0.0,0.0,0.0,0.04,0.0,0.0,0.0,0.04
1614726924.0813498,9130,1614726924,80931186,base_imu_link,-0.03791639517855513,0.048103064667913094,0.5942861430968963,0.8019179648001616,0.0025,0.0,0.0,0.0,0.0025,0.0,0.0,0.0,0.0025,0.0,-0.01,0.01,0.02,0.0,0.0,0.0,0.02,0.0,0.0,0.0,0.02,-1.1682929687499999,-0.04290125,9.810596562499999,0.04,0.0,0.0,0.0,0.04,0.0,0.0,0.0,0.04
1614726924.101381,9131,1614726924,100957393,base_imu_link,-0.03795266561165065,0.047859355240130616,0.594300600762193,0.8019201164845945,0.0025,0.0,0.0,0.0,0.0025,0.0,0.0,0.0,0.0025,0.0,-0.02,0.01,0.02,0.0,0.0,0.0,0.02,0.0,0.0,0.0,0.02,-1.1682929687499999,-0.0383046875,9.810596562499999,0.04,0.0,0.0,0.0,0.04,0.0,0.0,0.0,0.04
1614726924.1216192,9132,1614726924,121182680,base_imu_link,-0.037909160379251475,0.047782745925964286,0.5944435827235122,0.8018207603385872,0.0025,0.0,0.0,0.0,0.0025,0.0,0.0,0.0,0.0025,0.01,-0.02,0.01,0.02,0.0,0.0,0.0,0.02,0.0,0.0,0.0,0.02,-1.1828487499999998,-0.033708125,9.782251093749998,0.04,0.0,0.0,0.0,0.04,0.0,0.0,0.0,0.04
1614726924.1415944,9133,1614726924,141201496,base_imu_link,-0.03784897437868562,0.047719367585553986,0.594306653807009,0.8019288736143825,0.0025,0.0,0.0,0.0,0.0025,0.0,0.0,0.0,0.0025,0.01,-0.02,0.01,0.02,0.0,0.0,0.0,0.02,0.0,0.0,0.0,0.02,-1.1874453125,-0.023748906249999997,9.767695312499999,0.04,0.0,0.0,0.0,0.04,0.0,0.0,0.0,0.04
1614726924.1616333,9134,1614726924,161215066,base_imu_link,-0.0376529966125412,0.047756385118082105,0.5942313633894505,0.8019916871706742,0.0025,0.0,0.0,0.0,0.0025,0.0,0.0,0.0,0.0025,0.01,-0.02,0.0,0.02,0.0,0.0,0.0,0.02,0.0,0.0,0.0,0.02,-1.177869140625,-0.01915234375,9.7247940625,0.04,0.0,0.0,0.0,0.04,0.0,0.0,0.0,0.04
1614726924.1815171,9135,1614726924,181093692,base_imu_link,-0.03766966444143416,0.047743238833581066,0.5945112750914157,0.8017842124385642,0.0025,0.0,0.0,0.0,0.0025,0.0,0.0,0.0,0.0025,0.01,-0.02,0.01,0.02,0.0,0.0,0.0,0.02,0.0,0.0,0.0,0.02,-1.1874453125,0.0,9.738966796875,0.04,0.0,0.0,0.0,0.04,0.0,0.0,0.0,0.04
1614726924.20181,9136,1614726924,201385974,base_imu_link,-0.037581592017942776,0.04791697963603841,0.5944998879643121,0.8017864243140918,0.0025,0.0,0.0,0.0,0.0025,0.0,0.0,0.0,0.0025,0.0,-0.02,0.01,0.02,0.0,0.0,0.0,0.02,0.0,0.0,0.0,0.02,-1.1828487499999998,-0.023748906249999997,9.79144421875,0.04,0.0,0.0,0.0,0.04,0.0,0.0,0.0,0.04
1614726924.221803,9137,1614726924,221367359,base_imu_link,-0.03765156093976424,0.04786509955141135,0.5945040672459303,0.8017831416485252,0.0025,0.0,0.0,0.0,0.0025,0.0,0.0,0.0,0.0025,0.0,-0.01,0.01,0.02,0.0,0.0,0.0,0.02,0.0,0.0,0.0,0.02,-1.197021484375,-0.01915234375,9.796423828124999,0.04,0.0,0.0,0.0,0.04,0.0,0.0,0.0,0.04
1614726924.241823,9138,1614726924,241377592,base_imu_link,-0.037695059342891385,0.047941658949766305,0.5943610776703468,0.8018825282975208,0.0025,0.0,0.0,0.0,0.0025,0.0,0.0,0.0,0.0025,0.0,-0.01,0.01,0.02,0.0,0.0,0.0,0.02,0.0,0.0,0.0,0.02,-1.2161738281249999,-0.028728515625,9.796423828124999,0.04,0.0,0.0,0.0,0.04,0.0,0.0,0.0,0.04
1614726924.2618225,9139,1614726924,261402368,base_imu_link,-0.03780715575877972,0.04807503737340627,0.5944949224869983,0.8017700399068018,0.0025,0.0,0.0,0.0,0.0025,0.0,0.0,0.0,0.0025,0.01,-0.01,0.01,0.02,0.0,0.0,0.0,0.02,0.0,0.0,0.0,0.02,-1.230729609375,-0.0383046875,9.75313953125,0.04,0.0,0.0,0.0,0.04,0.0,0.0,0.0,0.04
1614726924.2819226,9140,1614726924,281478643,base_imu_link,-0.03801461148477249,0.04835494934133975,0.5944826660924701,0.8017524854364012,0.0025,0.0,0.0,0.0,0.0025,0.0,0.0,0.0,0.0025,0.01,-0.01,0.01,0.02,0.0,0.0,0.0,0.02,0.0,0.0,0.0,0.02,-1.24030578125,-0.014555781249999998,9.76309875,0.04,0.0,0.0,0.0,0.04,0.0,0.0,0.0,0.04
1614726924.3019307,9141,1614726924,301477670,base_imu_link,-0.038100235146917266,0.04861675686062519,0.5944691859116081,0.8017425833992444,0.0025,0.0,0.0,0.0,0.0025,0.0,0.0,0.0,0.0025,0.01,-0.01,0.01,0.02,0.0,0.0,0.0,0.02,0.0,0.0,0.0,0.02,-1.22575,-0.028728515625,9.7247940625,0.04,0.0,0.0,0.0,0.04,0.0,0.0,0.0,0.04
1614726924.322013,9142,1614726924,321572780,base_imu_link,-0.038260083231876296,0.0488233441963991,0.5945298488328681,0.8016774325995071,0.0025,0.0,0.0,0.0,0.0025,0.0,0.0,0.0,0.0025,0.01,-0.01,0.01,0.02,0.0,0.0,0.0,0.02,0.0,0.0,0.0,0.02,-1.22575,-0.004979609375,9.700662109375,0.04,0.0,0.0,0.0,0.04,0.0,0.0,0.0,0.04
1614726924.3421059,9143,1614726924,341686248,base_imu_link,-0.03829813716347014,0.04901182376494371,0.5945893078493023,0.8016200152268714,0.0025,0.0,0.0,0.0,0.0025,0.0,0.0,0.0,0.0025,0.01,-0.01,0.01,0.02,0.0,0.0,0.0,0.02,0.0,0.0,0.0,0.02,-1.2020010937499999,-0.014555781249999998,9.733987187499999,0.04,0.0,0.0,0.0,0.04,0.0,0.0,0.0,0.04
1614726924.362127,9144,1614726924,361707210,base_imu_link,-0.038280056728989396,0.04913367552169807,0.5945818977690817,0.801618915714862,0.0025,0.0,0.0,0.0,0.0025,0.0,0.0,0.0,0.0025,0.01,-0.01,0.01,0.02,0.0,0.0,0.0,0.02,0.0,0.0,0.0,0.02,-1.197021484375,-0.04290125,9.782251093749998,0.04,0.0,0.0,0.0,0.04,0.0,0.0,0.0,0.04
1614726924.3821497,9145,1614726924,381732463,base_imu_link,-0.038280056728989396,0.04913367552169807,0.5945818977690817,0.801618915714862,0.0025,0.0,0.0,0.0,0.0025,0.0,0.0,0.0,0.0025,0.02,-0.0,0.01,0.02,0.0,0.0,0.0,0.02,0.0,0.0,0.0,0.02,-1.1924249218749998,-0.05286046874999999,9.848901249999999,0.04,0.0,0.0,0.0,0.04,0.0,0.0,0.0,0.04
1614726924.402271,9146,1614726924,401793241,base_imu_link,-0.03826719225112758,0.04914369553321565,0.5943720140540963,0.8017745494188694,0.0025,0.0,0.0,0.0,0.0025,0.0,0.0,0.0,0.0025,0.02,-0.01,0.0,0.02,0.0,0.0,0.0,0.02,0.0,0.0,0.0,0.02,-1.1828487499999998,-0.0383046875,9.873033203124999,0.04,0.0,0.0,0.0,0.04,0.0,0.0,0.0,0.04
1614726924.4220736,9147,1614726924,421619653,base_imu_link,-0.038084948740896386,0.04906225645433261,0.5942340427737132,0.8018904751147887,0.0025,0.0,0.0,0.0,0.0025,0.0,0.0,0.0,0.0025,0.02,-0.01,0.01,0.02,0.0,0.0,0.0,0.02,0.0,0.0,0.0,0.02,-1.1828487499999998,0.0,9.820555781249999,0.04,0.0,0.0,0.0,0.04,0.0,0.0,0.0,0.04
1614726924.442093,9148,1614726924,441622972,base_imu_link,-0.03779273167946355,0.04906136594764294,0.594577304088334,0.8016498744879865,0.0025,0.0,0.0,0.0,0.0025,0.0,0.0,0.0,0.0025,0.02,-0.02,0.01,0.02,0.0,0.0,0.0,0.02,0.0,0.0,0.0,0.02,-1.177869140625,0.004979609375,9.74854296875,0.04,0.0,0.0,0.0,0.04,0.0,0.0,0.0,0.04
1614726924.4623928,9149,1614726924,462009906,base_imu_link,-0.03754050399423784,0.04903176276313671,0.594435100146681,0.8017689869992498,0.0025,0.0,0.0,0.0,0.0025,0.0,0.0,0.0,0.0025,0.02,-0.01,0.01,0.02,0.0,0.0,0.0,0.02,0.0,0.0,0.0,0.02,-1.16369640625,-0.004979609375,9.75313953125,0.04,0.0,0.0,0.0,0.04,0.0,0.0,0.0,0.04
1614726924.4825242,9150,1614726924,481995582,base_imu_link,-0.03730110989197624,0.048992308506671384,0.5945027988056686,0.8017323762454904,0.0025,0.0,0.0,0.0,0.0025,0.0,0.0,0.0,0.0025,0.02,-0.02,0.01,0.02,0.0,0.0,0.0,0.02,0.0,0.0,0.0,0.02,-1.1587167968749998,-0.009576171875,9.78684765625,0.04,0.0,0.0,0.0,0.04,0.0,0.0,0.0,0.04
1614726924.5023985,9151,1614726924,502018928,base_imu_link,-0.03707126112197813,0.04883751476019575,0.5944379867648691,0.8018005354461939,0.0025,0.0,0.0,0.0,0.0025,0.0,0.0,0.0,0.0025,0.01,-0.02,0.01,0.02,0.0,0.0,0.0,0.02,0.0,0.0,0.0,0.02,-1.1587167968749998,-0.028728515625,9.8014034375,0.04,0.0,0.0,0.0,0.04,0.0,0.0,0.0,0.04
1614726924.522671,9152,1614726924,522270917,base_imu_link,-0.037041739466924684,0.048642456977725367,0.5945184683736947,0.8017540842920794,0.0025,0.0,0.0,0.0,0.0025,0.0,0.0,0.0,0.0025,0.01,-0.02,0.01,0.02,0.0,0.0,0.0,0.02,0.0,0.0,0.0,0.02,-1.1828487499999998,-0.028728515625,9.758119140624999,0.04,0.0,0.0,0.0,0.04,0.0,0.0,0.0,0.04
1614726924.5427198,9153,1614726924,542261362,base_imu_link,-0.03711170556860243,0.0485905752688893,0.5945227109650834,0.8017508487376585,0.0025,0.0,0.0,0.0,0.0025,0.0,0.0,0.0,0.0025,0.01,-0.01,0.01,0.02,0.0,0.0,0.0,0.02,0.0,0.0,0.0,0.02,-1.197021484375,-0.014555781249999998,9.75313953125,0.04,0.0,0.0,0.0,0.04,0.0,0.0,0.0,0.04
1614726924.5627525,9154,1614726924,562308549,base_imu_link,-0.037041739466924684,0.048642456977725367,0.5945184683736947,0.8017540842920794,0.0025,0.0,0.0,0.0,0.0025,0.0,0.0,0.0,0.0025,0.01,-0.02,0.01,0.02,0.0,0.0,0.0,0.02,0.0,0.0,0.0,0.02,-1.197021484375,-0.004979609375,9.767695312499999,0.04,0.0,0.0,0.0,0.04,0.0,0.0,0.0,0.04
1614726924.5827854,9155,1614726924,582372903,base_imu_link,-0.03703215852510566,0.04875784650365723,0.5946510135288111,0.8016492148991696,0.0025,0.0,0.0,0.0,0.0025,0.0,0.0,0.0,0.0025,0.01,-0.02,0.02,0.02,0.0,0.0,0.0,0.02,0.0,0.0,0.0,0.02,-1.1874453125,-0.05286046874999999,9.76309875,0.04,0.0,0.0,0.0,0.04,0.0,0.0,0.0,0.04
1614726924.602844,9156,1614726924,602384090,base_imu_link,-0.037233545282014245,0.048608664783127455,0.5945238363825556,0.8017432686257502,0.0025,0.0,0.0,0.0,0.0025,0.0,0.0,0.0,0.0025,0.0,-0.01,0.01,0.02,0.0,0.0,0.0,0.02,0.0,0.0,0.0,0.02,-1.197021484375,-0.05286046874999999,9.733987187499999,0.04,0.0,0.0,0.0,0.04,0.0,0.0,0.0,0.04
1614726924.6231267,9157,1614726924,622657060,base_imu_link,-0.03762985483520627,0.04853122829211258,0.594744447579506,0.8015658151261743,0.0025,0.0,0.0,0.0,0.0025,0.0,0.0,0.0,0.0025,-0.01,-0.01,0.02,0.02,0.0,0.0,0.0,0.02,0.0,0.0,0.0,0.02,-1.235326171875,-0.0383046875,9.758119140624999,0.04,0.0,0.0,0.0,0.04,0.0,0.0,0.0,0.04
1614726924.643097,9158,1614726924,642654895,base_imu_link,-0.03799960791318775,0.0485820822715918,0.5948178106879298,0.8014908503339376,0.0025,0.0,0.0,0.0,0.0025,0.0,0.0,0.0,0.0025,-0.01,-0.01,0.01,0.02,0.0,0.0,0.0,0.02,0.0,0.0,0.0,0.02,-1.249881953125,-0.023748906249999997,9.738966796875,0.04,0.0,0.0,0.0,0.04,0.0,0.0,0.0,0.04
1614726924.6631277,9159,1614726924,662647008,base_imu_link,-0.03827712346275389,0.04880998593369245,0.5948096508211116,0.8014698536954693,0.0025,0.0,0.0,0.0,0.0025,0.0,0.0,0.0,0.0025,-0.0,-0.01,0.01,0.02,0.0,0.0,0.0,0.02,0.0,0.0,0.0,0.02,-1.24030578125,-0.047880859374999994,9.738966796875,0.04,0.0,0.0,0.0,0.04,0.0,0.0,0.0,0.04
1614726924.683134,9160,1614726924,682524919,base_imu_link,-0.038498466445679724,0.048971294158804426,0.5947346386425447,0.8015050779804606,0.0025,0.0,0.0,0.0,0.0025,0.0,0.0,0.0,0.0025,0.0,-0.01,0.01,0.02,0.0,0.0,0.0,0.02,0.0,0.0,0.0,0.02,-1.24030578125,-0.04290125,9.75313953125,0.04,0.0,0.0,0.0,0.04,0.0,0.0,0.0,0.04
1614726924.7030046,9161,1614726924,702559947,base_imu_link,-0.038676460839667436,0.049055930038724375,0.5948026233510753,0.8014408813877867,0.0025,0.0,0.0,0.0,0.0025,0.0,0.0,0.0,0.0025,0.01,-0.01,0.01,0.02,0.0,0.0,0.0,0.02,0.0,0.0,0.0,0.02,-1.230729609375,-0.06243664062499999,9.75313953125,0.04,0.0,0.0,0.0,0.04,0.0,0.0,0.0,0.04
1614726924.7230797,9162,1614726924,722613811,base_imu_link,-0.03893296740738298,0.049081827668664764,0.59501474615866,0.8012693992006087,0.0025,0.0,0.0,0.0,0.0025,0.0,0.0,0.0,0.0025,0.01,-0.01,0.01,0.02,0.0,0.0,0.0,0.02,0.0,0.0,0.0,0.02,-1.211577265625,-0.06243664062499999,9.719814453124998,0.04,0.0,0.0,0.0,0.04,0.0,0.0,0.0,0.04
1614726924.74303,9163,1614726924,742627859,base_imu_link,-0.03912044060517639,0.04905132872426982,0.5949502713840833,0.8013100104561567,0.0025,0.0,0.0,0.0,0.0025,0.0,0.0,0.0,0.0025,0.0,-0.0,0.01,0.02,0.0,0.0,0.0,0.02,0.0,0.0,0.0,0.02,-1.177869140625,-0.047880859374999994,9.76309875,0.04,0.0,0.0,0.0,0.04,0.0,0.0,0.0,0.04
1614726924.7633147,9164,1614726924,762865781,base_imu_link,-0.03921266081400153,0.04887412535427904,0.5950318426978554,0.8012557602153851,0.0025,0.0,0.0,0.0,0.0025,0.0,0.0,0.0,0.0025,0.0,-0.0,0.01,0.02,0.0,0.0,0.0,0.02,0.0,0.0,0.0,0.02,-1.1682929687499999,-0.028728515625,9.806,0.04,0.0,0.0,0.0,0.04,0.0,0.0,0.0,0.04
1614726924.7833204,9165,1614726924,782866239,base_imu_link,-0.03916501383551359,0.0488007694569176,0.595104853725636,0.8012083372406119,0.0025,0.0,0.0,0.0,0.0025,0.0,0.0,0.0,0.0025,0.0,-0.0,0.0,0.02,0.0,0.0,0.0,0.02,0.0,0.0,0.0,0.02,-1.1541202343749999,-0.009576171875,9.848901249999999,0.04,0.0,0.0,0.0,0.04,0.0,0.0,0.0,0.04
1614726924.8032432,9166,1614726924,802774429,base_imu_link,-0.038926620385975746,0.04865309189569444,0.5949000748551265,0.8013809929188987,0.0025,0.0,0.0,0.0,0.0025,0.0,0.0,0.0,0.0025,0.0,-0.0,0.0,0.02,0.0,0.0,0.0,0.02,0.0,0.0,0.0,0.02,-1.16369640625,0.023748906249999997,9.858860468749999,0.04,0.0,0.0,0.0,0.04,0.0,0.0,0.0,0.04
1614726924.8232114,9167,1614726924,822750091,base_imu_link,-0.03856536900507744,0.04859562504116925,0.5949665239592263,0.8013526145887563,0.0025,0.0,0.0,0.0,0.0025,0.0,0.0,0.0,0.0025,0.0,-0.01,0.01,0.02,0.0,0.0,0.0,0.02,0.0,0.0,0.0,0.02,-1.1541202343749999,0.033708125,9.834728515624999,0.04,0.0,0.0,0.0,0.04,0.0,0.0,0.0,0.04
1614726924.8433242,9168,1614726924,842845201,base_imu_link,-0.03817333783265106,0.048670080928354335,0.5948158584748653,0.8014787046503175,0.0025,0.0,0.0,0.0,0.0025,0.0,0.0,0.0,0.0025,0.0,-0.01,0.01,0.02,0.0,0.0,0.0,0.02,0.0,0.0,0.0,0.02,-1.1541202343749999,0.01915234375,9.810596562499999,0.04,0.0,0.0,0.0,0.04,0.0,0.0,0.0,0.04
1614726924.8635216,9169,1614726924,863076686,base_imu_link,-0.03788200776530036,0.04856073083029258,0.5948866106973371,0.8014466478324882,0.0025,0.0,0.0,0.0,0.0025,0.0,0.0,0.0,0.0025,0.0,-0.01,0.01,0.02,0.0,0.0,0.0,0.02,0.0,0.0,0.0,0.02,-1.1587167968749998,-0.004979609375,9.820555781249999,0.04,0.0,0.0,0.0,0.04,0.0,0.0,0.0,0.04
1614726924.88338,9170,1614726924,882897138,base_imu_link,-0.03766481052787449,0.04839622368754946,0.5950315361707655,0.8013592443735476,0.0025,0.0,0.0,0.0,0.0025,0.0,0.0,0.0,0.0025,0.01,-0.02,0.01,0.02,0.0,0.0,0.0,0.02,0.0,0.0,0.0,0.02,-1.1587167968749998,0.004979609375,9.815576171875,0.04,0.0,0.0,0.0,0.04,0.0,0.0,0.0,0.04
1614726924.9033885,9171,1614726924,902938604,base_imu_link,-0.037303484778627036,0.048338924456315505,0.5950980864616703,0.8013301853140412,0.0025,0.0,0.0,0.0,0.0025,0.0,0.0,0.0,0.0025,0.01,-0.02,0.01,0.02,0.0,0.0,0.0,0.02,0.0,0.0,0.0,0.02,-1.1587167968749998,0.028728515625,9.777271484375,0.04,0.0,0.0,0.0,0.04,0.0,0.0,0.0,0.04
1614726924.9234078,9172,1614726924,922955513,base_imu_link,-0.03707242323570956,0.04829321147913594,0.595305620673203,0.8011895026492523,0.0025,0.0,0.0,0.0,0.0025,0.0,0.0,0.0,0.0025,0.01,-0.02,0.01,0.02,0.0,0.0,0.0,0.02,0.0,0.0,0.0,0.02,-1.1541202343749999,0.004979609375,9.76309875,0.04,0.0,0.0,0.0,0.04,0.0,0.0,0.0,0.04
1614726924.9436634,9173,1614726924,943173408,base_imu_link,-0.03689020677078615,0.04821175449493784,0.5951677639701978,0.8013052302984447,0.0025,0.0,0.0,0.0,0.0025,0.0,0.0,0.0,0.0025,0.0,-0.01,0.02,0.02,0.0,0.0,0.0,0.02,0.0,0.0,0.0,0.02,-1.1828487499999998,-0.023748906249999997,9.782251093749998,0.04,0.0,0.0,0.0,0.04,0.0,0.0,0.0,0.04
1614726924.9636593,9174,1614726924,963225364,base_imu_link,-0.03689020677078615,0.04821175449493784,0.5951677639701978,0.8013052302984447,0.0025,0.0,0.0,0.0,0.0025,0.0,0.0,0.0,0.0025,0.01,-0.02,0.02,0.02,0.0,0.0,0.0,0.02,0.0,0.0,0.0,0.02,-1.2020010937499999,-0.023748906249999997,9.806,0.04,0.0,0.0,0.0,0.04,0.0,0.0,0.0,0.04
1614726924.9838712,9175,1614726924,983405828,base_imu_link,-0.03691544532842599,0.04819243221996072,0.5955872448041826,0.8009934913590067,0.0025,0.0,0.0,0.0,0.0025,0.0,0.0,0.0,0.0025,0.01,-0.02,0.01,0.02,0.0,0.0,0.0,0.02,0.0,0.0,0.0,0.02,-1.2161738281249999,-0.06243664062499999,9.758119140624999,0.04,0.0,0.0,0.0,0.04,0.0,0.0,0.0,0.04
1614726925.0039546,9176,1614726925,3482103,base_imu_link,-0.0371591771818681,0.04822829301834899,0.5955894632748648,0.8009784132794474,0.0025,0.0,0.0,0.0,0.0025,0.0,0.0,0.0,0.0025,0.02,-0.02,0.01,0.02,0.0,0.0,0.0,0.02,0.0,0.0,0.0,0.02,-1.22575,-0.06243664062499999,9.71023828125,0.04,0.0,0.0,0.0,0.04,0.0,0.0,0.0,0.04
1614726925.0238655,9177,1614726925,23429870,base_imu_link,-0.03738074873503778,0.04838929484867199,0.5955144791635859,0.801014145240007,0.0025,0.0,0.0,0.0,0.0025,0.0,0.0,0.0,0.0025,0.02,-0.01,0.01,0.02,0.0,0.0,0.0,0.02,0.0,0.0,0.0,0.02,-1.22575,-0.08120593749999999,9.71483484375,0.04,0.0,0.0,0.0,0.04,0.0,0.0,0.0,0.04
1614726925.0439422,9178,1614726925,43525218,base_imu_link,-0.037685923778002284,0.048379784707195735,0.595381138449508,0.8010995366115572,0.0025,0.0,0.0,0.0,0.0025,0.0,0.0,0.0,0.0025,0.02,-0.02,0.01,0.02,0.0,0.0,0.0,0.02,0.0,0.0,0.0,0.02,-1.2065976562499998,-0.09576171874999999,9.743946406249998,0.04,0.0,0.0,0.0,0.04,0.0,0.0,0.0,0.04
1614726925.0639977,9179,1614726925,63561439,base_imu_link,-0.03801329106622182,0.04824519093573188,0.5953250087100783,0.801133899706057,0.0025,0.0,0.0,0.0,0.0025,0.0,0.0,0.0,0.0025,0.01,-0.02,0.01,0.02,0.0,0.0,0.0,0.02,0.0,0.0,0.0,0.02,-1.2020010937499999,-0.10074132812499999,9.733987187499999,0.04,0.0,0.0,0.0,0.04,0.0,0.0,0.0,0.04
1614726925.0840108,9180,1614726925,83561420,base_imu_link,-0.038423169527464746,0.04804864586356262,0.5954827694867587,0.8010089006487515,0.0025,0.0,0.0,0.0,0.0025,0.0,0.0,0.0,0.0025,0.0,-0.01,0.01,0.02,0.0,0.0,0.0,0.02,0.0,0.0,0.0,0.02,-1.2065976562499998,-0.10074132812499999,9.733987187499999,0.04,0.0,0.0,0.0,0.04,0.0,0.0,0.0,0.04
1614726925.1041007,9181,1614726925,103679895,base_imu_link,-0.03886699252919454,0.04804374447509553,0.5956302027706627,0.8008781536887659,0.0025,0.0,0.0,0.0,0.0025,0.0,0.0,0.0,0.0025,0.0,-0.0,0.01,0.02,0.0,0.0,0.0,0.02,0.0,0.0,0.0,0.02,-1.1924249218749998,-0.08618554687499999,9.76309875,0.04,0.0,0.0,0.0,0.04,0.0,0.0,0.0,0.04
1614726925.124361,9182,1614726925,123881578,base_imu_link,-0.03915072368376542,0.04783241102604471,0.5957168232600643,0.800812554706412,0.0025,0.0,0.0,0.0,0.0025,0.0,0.0,0.0,0.0025,-0.0,-0.01,0.01,0.02,0.0,0.0,0.0,0.02,0.0,0.0,0.0,0.02,-1.1924249218749998,-0.0720128125,9.78684765625,0.04,0.0,0.0,0.0,0.04,0.0,0.0,0.0,0.04
1614726925.144286,9183,1614726925,143893480,base_imu_link,-0.0393382801675684,0.047801774133515704,0.5956522731037321,0.8008532073042494,0.0025,0.0,0.0,0.0,0.0025,0.0,0.0,0.0,0.0025,-0.0,-0.01,0.01,0.02,0.0,0.0,0.0,0.02,0.0,0.0,0.0,0.02,-1.1924249218749998,-0.06243664062499999,9.815576171875,0.04,0.0,0.0,0.0,0.04,0.0,0.0,0.0,0.04
1614726925.1644683,9184,1614726925,163950920,base_imu_link,-0.03947389225094445,0.04770125740092471,0.595590717720595,0.8008983074261039,0.0025,0.0,0.0,0.0,0.0025,0.0,0.0,0.0,0.0025,-0.0,-0.01,0.01,0.02,0.0,0.0,0.0,0.02,0.0,0.0,0.0,0.02,-1.2065976562499998,-0.04290125,9.796423828124999,0.04,0.0,0.0,0.0,0.04,0.0,0.0,0.0,0.04
1614726925.1842775,9185,1614726925,183809041,base_imu_link,-0.03946012111704041,0.04781970085775279,0.5956534402279279,0.8008452748165141,0.0025,0.0,0.0,0.0,0.0025,0.0,0.0,0.0,0.0025,0.0,-0.01,0.0,0.02,0.0,0.0,0.0,0.02,0.0,0.0,0.0,0.02,-1.197021484375,-0.028728515625,9.8014034375,0.04,0.0,0.0,0.0,0.04,0.0,0.0,0.0,0.04
1614726925.204452,9186,1614726925,203998088,base_imu_link,-0.039429635167859065,0.04795191228797076,0.5954365712317009,0.8010001295994226,0.0025,0.0,0.0,0.0,0.0025,0.0,0.0,0.0,0.0025,0.0,-0.01,0.0,0.02,0.0,0.0,0.0,0.02,0.0,0.0,0.0,0.02,-1.1828487499999998,-0.014555781249999998,9.820555781249999,0.04,0.0,0.0,0.0,0.04,0.0,0.0,0.0,0.04
