Time,header.seq,header.stamp.secs,header.stamp.nsecs,header.frame_id,orientation.x,orientation.y,orientation.z,orientation.w,orientation_covariance_0,orientation_covariance_1,orientation_covariance_2,orientation_covariance_3,orientation_covariance_4,orientation_covariance_5,orientation_covariance_6,orientation_covariance_7,orientation_covariance_8,angular_velocity.x,angular_velocity.y,angular_velocity.z,angular_velocity_covariance_0,angular_velocity_covariance_1,angular_velocity_covariance_2,angular_velocity_covariance_3,angular_velocity_covariance_4,angular_velocity_covariance_5,angular_velocity_covariance_6,angular_velocity_covariance_7,angular_velocity_covariance_8,linear_acceleration.x,linear_acceleration.y,linear_acceleration.z,linear_acceleration_covariance_0,linear_acceleration_covariance_1,linear_acceleration_covariance_2,linear_acceleration_covariance_3,linear_acceleration_covariance_4,linear_acceleration_covariance_5,linear_acceleration_covariance_6,linear_acceleration_covariance_7,linear_acceleration_covariance_8
1614725348.6040025,990,1614725348,595438003,base_imu_link,-0.10352070162541413,0.043694311964818176,0.6763017229404025,0.7280042932460951,0.0025,0.0,0.0,0.0,0.0025,0.0,0.0,0.0,0.0025,-0.0,-0.0,0.0,0.02,0.0,0.0,0.0,0.02,0.0,0.0,0.0,0.02,-0.04290125,-0.158198359375,0.59372265625,0.04,0.0,0.0,0.0,0.04,0.0,0.0,0.0,0.04
1614725348.622136,991,1614725348,614371061,base_imu_link,-0.10360581497596308,0.04369512774970931,0.67674325235698,0.7275817076476017,0.0025,0.0,0.0,0.0,0.0025,0.0,0.0,0.0,0.0025,-0.0,-0.0,0.0,0.02,0.0,0.0,0.0,0.02,0.0,0.0,0.0,0.02,-0.0383046875,-0.15398484374999996,0.6113428125,0.04,0.0,0.0,0.0,0.04,0.0,0.0,0.0,0.04
1614725348.6437082,992,1614725348,635612010,base_imu_link,-0.10370103354779309,0.04376348717724682,0.6762994370610735,0.7279765959576457,0.0025,0.0,0.0,0.0,0.0025,0.0,0.0,0.0,0.0025,-0.0,-0.0,0.0,0.02,0.0,0.0,0.0,0.02,0.0,0.0,0.0,0.02,-0.033708125,-0.14479171875,0.59372265625,0.04,0.0,0.0,0.0,0.04,0.0,0.0,0.0,0.04
1614725348.6633766,993,1614725348,654371023,base_imu_link,-0.10381400167915968,0.04390073932972023,0.67622979122056,0.7280169281050141,0.0025,0.0,0.0,0.0,0.0025,0.0,0.0,0.0,0.0025,-0.0,-0.0,0.0,0.02,0.0,0.0,0.0,0.02,0.0,0.0,0.0,0.02,-0.033708125,-0.14938828124999998,0.5761025,0.04,0.0,0.0,0.0,0.04,0.0,0.0,0.0,0.04
1614725348.6828113,994,1614725348,674494981,base_imu_link,-0.10388390070743095,0.043937644941281176,0.6764172945965089,0.7278305174294097,0.0025,0.0,0.0,0.0,0.0025,0.0,0.0,0.0,0.0025,-0.0,-0.0,0.0,0.02,0.0,0.0,0.0,0.02,0.0,0.0,0.0,0.02,-0.0383046875,-0.14479171875,0.59372265625,0.04,0.0,0.0,0.0,0.04,0.0,0.0,0.0,0.04
1614725348.7031424,995,1614725348,695005893,base_imu_link,-0.10397896082559266,0.044006227059946196,0.6759733376286527,0.7282251537132989,0.0025,0.0,0.0,0.0,0.0025,0.0,0.0,0.0,0.0025,-0.0,-0.0,0.0,0.02,0.0,0.0,0.0,0.02,0.0,0.0,0.0,0.02,-0.033708125,-0.131385078125,0.5761025,0.04,0.0,0.0,0.0,0.04,0.0,0.0,0.0,0.04
1614725348.7239463,996,1614725348,714452981,base_imu_link,-0.10406807021808623,0.04399770539227511,0.6764784965607555,0.7277436927739037,0.0025,0.0,0.0,0.0,0.0025,0.0,0.0,0.0,0.0025,-0.0,-0.0,-0.0,0.02,0.0,0.0,0.0,0.02,0.0,0.0,0.0,0.02,-0.029111562499999997,-0.14019515624999998,0.5761025,0.04,0.0,0.0,0.0,0.04,0.0,0.0,0.0,0.04
1614725348.7442424,997,1614725348,734886884,base_imu_link,-0.10418998842089003,0.04400275133199564,0.6764792605882393,0.7277252326132841,0.0025,0.0,0.0,0.0,0.0025,0.0,0.0,0.0,0.0025,-0.0,-0.0,0.0,0.02,0.0,0.0,0.0,0.02,0.0,0.0,0.0,0.02,-0.024515,-0.14479171875,0.5580992968749999,0.04,0.0,0.0,0.0,0.04,0.0,0.0,0.0,0.04
1614725348.763629,998,1614725348,754945993,base_imu_link,-0.10423685836705672,0.04409412164596817,0.6762856437711031,0.7278929274440997,0.0025,0.0,0.0,0.0,0.0025,0.0,0.0,0.0,0.0025,-0.0,-0.0,0.0,0.02,0.0,0.0,0.0,0.02,0.0,0.0,0.0,0.02,-0.033708125,-0.14479171875,0.5580992968749999,0.04,0.0,0.0,0.0,0.04,0.0,0.0,0.0,0.04
1614725348.7851758,999,1614725348,775621891,base_imu_link,-0.10436261839142731,0.04409009211352463,0.6763499304127933,0.7278154156724876,0.0025,0.0,0.0,0.0,0.0025,0.0,0.0,0.0,0.0025,-0.0,-0.0,0.0,0.02,0.0,0.0,0.0,0.02,0.0,0.0,0.0,0.02,-0.04290125,-0.14479171875,0.5761025,0.04,0.0,0.0,0.0,0.04,0.0,0.0,0.0,0.04
1614725348.803241,1000,1614725348,794857025,base_imu_link,-0.10445566138992039,0.04407215587851088,0.6769182581176632,0.7272745916823736,0.0025,0.0,0.0,0.0,0.0025,0.0,0.0,0.0,0.0025,-0.0,-0.0,0.0,0.02,0.0,0.0,0.0,0.02,0.0,0.0,0.0,0.02,-0.04290125,-0.14938828124999998,0.5761025,0.04,0.0,0.0,0.0,0.04,0.0,0.0,0.0,0.04
1614725348.8231575,1001,1614725348,814870119,base_imu_link,-0.10454873975855916,0.04405410031438689,0.6774861483474319,0.7267333183897298,0.0025,0.0,0.0,0.0,0.0025,0.0,0.0,0.0,0.0025,-0.0,-0.0,0.0,0.02,0.0,0.0,0.0,0.02,0.0,0.0,0.0,0.02,-0.033708125,-0.14479171875,0.5580992968749999,0.04,0.0,0.0,0.0,0.04,0.0,0.0,0.0,0.04
1614725348.8430903,1002,1614725348,835122108,base_imu_link,-0.10467834173554261,0.04404070642112061,0.6776137149146451,0.7265965278674265,0.0025,0.0,0.0,0.0,0.0025,0.0,0.0,0.0,0.0025,-0.0,-0.0,0.0,0.02,0.0,0.0,0.0,0.02,0.0,0.0,0.0,0.02,-0.033708125,-0.14019515624999998,0.5580992968749999,0.04,0.0,0.0,0.0,0.04,0.0,0.0,0.0,0.04
1614725348.8768947,1003,1614725348,855377912,base_imu_link,-0.10474069535042906,0.044095552933780875,0.6776740115830178,0.7265279781081749,0.0025,0.0,0.0,0.0,0.0025,0.0,0.0,0.0,0.0025,-0.0,-0.0,0.0,0.02,0.0,0.0,0.0,0.02,0.0,0.0,0.0,0.02,-0.0383046875,-0.14479171875,0.5761025,0.04,0.0,0.0,0.0,0.04,0.0,0.0,0.0,0.04
1614725348.8865337,1004,1614725348,875410079,base_imu_link,-0.10483950030841716,0.04415529596094996,0.677294256913573,0.7268641403767098,0.0025,0.0,0.0,0.0,0.0025,0.0,0.0,0.0,0.0025,-0.0,-0.0,0.0,0.02,0.0,0.0,0.0,0.02,0.0,0.0,0.0,0.02,-0.029111562499999997,-0.15398484374999996,0.6113428125,0.04,0.0,0.0,0.0,0.04,0.0,0.0,0.0,0.04
1614725348.9035037,1005,1614725348,895405054,base_imu_link,-0.10489411585630229,0.04422846168263858,0.6772277162353053,0.7269138105708439,0.0025,0.0,0.0,0.0,0.0025,0.0,0.0,0.0,0.0025,-0.0,-0.0,0.0,0.02,0.0,0.0,0.0,0.02,0.0,0.0,0.0,0.02,-0.0383046875,-0.14938828124999998,0.6113428125,0.04,0.0,0.0,0.0,0.04,0.0,0.0,0.0,0.04
1614725348.9241703,1006,1614725348,915322065,base_imu_link,-0.10497190052918148,0.0442466798445853,0.6775417112301393,0.7266088087584385,0.0025,0.0,0.0,0.0,0.0025,0.0,0.0,0.0,0.0025,-0.0,-0.0,0.0,0.02,0.0,0.0,0.0,0.02,0.0,0.0,0.0,0.02,-0.0383046875,-0.14938828124999998,0.59372265625,0.04,0.0,0.0,0.0,0.04,0.0,0.0,0.0,0.04
1614725348.9437053,1007,1614725348,935242891,base_imu_link,-0.10511310181168143,0.04420568397260237,0.6778594240884503,0.7262944957154195,0.0025,0.0,0.0,0.0,0.0025,0.0,0.0,0.0,0.0025,-0.0,-0.0,-0.0,0.02,0.0,0.0,0.0,0.02,0.0,0.0,0.0,0.02,-0.04290125,-0.15398484374999996,0.6293460156249999,0.04,0.0,0.0,0.0,0.04,0.0,0.0,0.0,0.04
1614725348.9645593,1008,1614725348,956127882,base_imu_link,-0.10517548651028039,0.04426047098074843,0.677919676462431,0.726225887731194,0.0025,0.0,0.0,0.0,0.0025,0.0,0.0,0.0,0.0025,-0.0,-0.0,0.0,0.02,0.0,0.0,0.0,0.02,0.0,0.0,0.0,0.02,-0.0383046875,-0.14479171875,0.6293460156249999,0.04,0.0,0.0,0.0,0.04,0.0,0.0,0.0,0.04
1614725348.9842744,1009,1614725348,975539922,base_imu_link,-0.10529352379820256,0.04427445988311155,0.6778570344397876,0.7262664021615709,0.0025,0.0,0.0,0.0,0.0025,0.0,0.0,0.0,0.0025,-0.0,-0.0,-0.0,0.02,0.0,0.0,0.0,0.02,0.0,0.0,0.0,0.02,-0.0383046875,-0.14479171875,0.6113428125,0.04,0.0,0.0,0.0,0.04,0.0,0.0,0.0,0.04
1614725349.005352,1010,1614725348,995318889,base_imu_link,-0.10536751382450477,0.04430164711295966,0.6781073745181151,0.7260202750045416,0.0025,0.0,0.0,0.0,0.0025,0.0,0.0,0.0,0.0025,-0.0,-0.0,-0.0,0.02,0.0,0.0,0.0,0.02,0.0,0.0,0.0,0.02,-0.0383046875,-0.14479171875,0.6113428125,0.04,0.0,0.0,0.0,0.04,0.0,0.0,0.0,0.04
1614725349.0247152,1011,1614725349,15721082,base_imu_link,-0.10542992598831627,0.04435639074768062,0.6781675897481367,0.7259516247802882,0.0025,0.0,0.0,0.0,0.0025,0.0,0.0,0.0,0.0025,-0.0,-0.0,0.0,0.02,0.0,0.0,0.0,0.02,0.0,0.0,0.0,0.02,-0.0383046875,-0.14938828124999998,0.6113428125,0.04,0.0,0.0,0.0,0.04,0.0,0.0,0.0,0.04
1614725349.0444915,1012,1614725349,35615921,base_imu_link,-0.10554795006158195,0.04437035904740761,0.6781049668153977,0.7259921180399207,0.0025,0.0,0.0,0.0,0.0025,0.0,0.0,0.0,0.0025,-0.0,-0.0,0.0,0.02,0.0,0.0,0.0,0.02,0.0,0.0,0.0,0.02,-0.04290125,-0.14019515624999998,0.59372265625,0.04,0.0,0.0,0.0,0.04,0.0,0.0,0.0,0.04
1614725349.0636876,1013,1614725349,55733919,base_imu_link,-0.10566502626359955,0.04449824583070717,0.6780986749904373,0.7259731367749882,0.0025,0.0,0.0,0.0,0.0025,0.0,0.0,0.0,0.0025,-0.0,-0.0,0.0,0.02,0.0,0.0,0.0,0.02,0.0,0.0,0.0,0.02,-0.0383046875,-0.14938828124999998,0.6113428125,0.04,0.0,0.0,0.0,0.04,0.0,0.0,0.0,0.04
1614725349.0840623,1014,1614725349,75778961,base_imu_link,-0.10576748686142076,0.04454916755871792,0.6777825856278723,0.7262502165317685,0.0025,0.0,0.0,0.0,0.0025,0.0,0.0,0.0,0.0025,-0.0,-0.0,0.0,0.02,0.0,0.0,0.0,0.02,0.0,0.0,0.0,0.02,-0.033708125,-0.14938828124999998,0.6113428125,0.04,0.0,0.0,0.0,0.04,0.0,0.0,0.0,0.04
1614725349.104603,1015,1614725349,95933914,base_imu_link,-0.10581431089682503,0.04464083956440781,0.6775892839379609,0.7264181229463212,0.0025,0.0,0.0,0.0,0.0025,0.0,0.0,0.0,0.0025,-0.0,-0.0,0.0,0.02,0.0,0.0,0.0,0.02,0.0,0.0,0.0,0.02,-0.0383046875,-0.14479171875,0.6113428125,0.04,0.0,0.0,0.0,0.04,0.0,0.0,0.0,0.04
1614725349.124464,1016,1614725349,115927934,base_imu_link,-0.10595955330905416,0.04459021800130131,0.6779702797442501,0.7260444788748451,0.0025,0.0,0.0,0.0,0.0025,0.0,0.0,0.0,0.0025,-0.0,-0.0,0.0,0.02,0.0,0.0,0.0,0.02,0.0,0.0,0.0,0.02,-0.033708125,-0.14938828124999998,0.6113428125,0.04,0.0,0.0,0.0,0.04,0.0,0.0,0.0,0.04
1614725349.1440635,1017,1614725349,135953903,base_imu_link,-0.10603754892868433,0.04460790727125614,0.6782838513788839,0.725739064529879,0.0025,0.0,0.0,0.0,0.0025,0.0,0.0,0.0,0.0025,-0.0,-0.0,0.0,0.02,0.0,0.0,0.0,0.02,0.0,0.0,0.0,0.02,-0.0383046875,-0.15398484374999996,0.6113428125,0.04,0.0,0.0,0.0,0.04,0.0,0.0,0.0,0.04
1614725349.164264,1018,1614725349,156163930,base_imu_link,-0.10611557933950018,0.044625536615015914,0.6785972803979662,0.7254335092479174,0.0025,0.0,0.0,0.0,0.0025,0.0,0.0,0.0,0.0025,-0.0,-0.0,0.0,0.02,0.0,0.0,0.0,0.02,0.0,0.0,0.0,0.02,-0.0383046875,-0.14479171875,0.59372265625,0.04,0.0,0.0,0.0,0.04,0.0,0.0,0.0,0.04
1614725349.1842957,1019,1614725349,176071882,base_imu_link,-0.10622966888459132,0.04464876005039926,0.6784713836419829,0.7255331331190636,0.0025,0.0,0.0,0.0,0.0025,0.0,0.0,0.0,0.0025,-0.0,-0.0,0.0,0.02,0.0,0.0,0.0,0.02,0.0,0.0,0.0,0.02,-0.029111562499999997,-0.14479171875,0.5761025,0.04,0.0,0.0,0.0,0.04,0.0,0.0,0.0,0.04
1614725349.2047684,1020,1614725349,196151971,base_imu_link,-0.10636241763338047,0.04473945698235451,0.6787182435077105,0.7252771629066467,0.0025,0.0,0.0,0.0,0.0025,0.0,0.0,0.0,0.0025,-0.0,-0.0,0.0,0.02,0.0,0.0,0.0,0.02,0.0,0.0,0.0,0.02,-0.033708125,-0.15398484374999996,0.5761025,0.04,0.0,0.0,0.0,0.04,0.0,0.0,0.0,0.04
1614725349.2250292,1021,1614725349,216346979,base_imu_link,-0.10649210018347155,0.044725531942957725,0.6788455353001812,0.7251398476114408,0.0025,0.0,0.0,0.0,0.0025,0.0,0.0,0.0,0.0025,-0.0,-0.0,0.0,0.02,0.0,0.0,0.0,0.02,0.0,0.0,0.0,0.02,-0.029111562499999997,-0.14479171875,0.5761025,0.04,0.0,0.0,0.0,0.04,0.0,0.0,0.0,0.04
1614725349.244439,1022,1614725349,236445903,base_imu_link,-0.10655460161323012,0.044780113071652215,0.6789056244366936,0.7250710389034712,0.0025,0.0,0.0,0.0,0.0025,0.0,0.0,0.0,0.0025,-0.0,-0.0,0.0,0.02,0.0,0.0,0.0,0.02,0.0,0.0,0.0,0.02,-0.029111562499999997,-0.15398484374999996,0.5761025,0.04,0.0,0.0,0.0,0.04,0.0,0.0,0.0,0.04
1614725349.2652898,1023,1614725349,256462097,base_imu_link,-0.10666083341879326,0.04482197601872453,0.6786532090841549,0.7252891002076093,0.0025,0.0,0.0,0.0,0.0025,0.0,0.0,0.0,0.0025,-0.0,-0.0,0.0,0.02,0.0,0.0,0.0,0.02,0.0,0.0,0.0,0.02,-0.024515,-0.158198359375,0.5404791406249999,0.04,0.0,0.0,0.0,0.04,0.0,0.0,0.0,0.04
1614725349.297307,1024,1614725349,276365995,base_imu_link,-0.10673506907849671,0.044848615718507234,0.6789031479554523,0.7250425797104052,0.0025,0.0,0.0,0.0,0.0025,0.0,0.0,0.0,0.0025,-0.0,-0.0,0.0,0.02,0.0,0.0,0.0,0.02,0.0,0.0,0.0,0.02,-0.029111562499999997,-0.158198359375,0.5580992968749999,0.04,0.0,0.0,0.0,0.04,0.0,0.0,0.0,0.04
1614725349.306608,1025,1614725349,296539068,base_imu_link,-0.10688040571536223,0.044797287786951044,0.6792833945461472,0.724668097666039,0.0025,0.0,0.0,0.0,0.0025,0.0,0.0,0.0,0.0025,-0.0,-0.0,0.0,0.02,0.0,0.0,0.0,0.02,0.0,0.0,0.0,0.02,-0.0383046875,-0.14938828124999998,0.5761025,0.04,0.0,0.0,0.0,0.04,0.0,0.0,0.0,0.04
1614725349.3242242,1026,1614725349,316366910,base_imu_link,-0.106954685998395,0.04482379928170235,0.67953310346758,0.7244213438687859,0.0025,0.0,0.0,0.0,0.0025,0.0,0.0,0.0,0.0025,-0.0,-0.0,-0.0,0.02,0.0,0.0,0.0,0.02,0.0,0.0,0.0,0.02,-0.04749781249999999,-0.15398484374999996,0.59372265625,0.04,0.0,0.0,0.0,0.04,0.0,0.0,0.0,0.04
1614725349.3452117,1027,1614725349,336592912,base_imu_link,-0.10708437360526671,0.044809632056153126,0.6796602280339193,0.7242837898458314,0.0025,0.0,0.0,0.0,0.0025,0.0,0.0,0.0,0.0025,-0.0,-0.0,0.0,0.02,0.0,0.0,0.0,0.02,0.0,0.0,0.0,0.02,-0.04290125,-0.158198359375,0.5580992968749999,0.04,0.0,0.0,0.0,0.04,0.0,0.0,0.0,0.04
1614725349.3842375,1028,1614725349,356652021,base_imu_link,-0.10717433332807305,0.04479863306315913,0.6801624880965117,0.7237995126675052,0.0025,0.0,0.0,0.0,0.0025,0.0,0.0,0.0,0.0025,-0.0,-0.0,0.0,0.02,0.0,0.0,0.0,0.02,0.0,0.0,0.0,0.02,-0.0383046875,-0.158198359375,0.5404791406249999,0.04,0.0,0.0,0.0,0.04,0.0,0.0,0.0,0.04
1614725349.3872278,1029,1614725349,376657009,base_imu_link,-0.10725260001631036,0.04481561013121479,0.6804750113397319,0.7234930544383271,0.0025,0.0,0.0,0.0,0.0025,0.0,0.0,0.0,0.0025,-0.0,-0.0,0.0,0.02,0.0,0.0,0.0,0.02,0.0,0.0,0.0,0.02,-0.029111562499999997,-0.15398484374999996,0.5580992968749999,0.04,0.0,0.0,0.0,0.04,0.0,0.0,0.0,0.04
1614725349.4053044,1030,1614725349,396640062,base_imu_link,-0.10738619459249416,0.04479186010538267,0.6806650726601634,0.7232958961170575,0.0025,0.0,0.0,0.0,0.0025,0.0,0.0,0.0,0.0025,-0.0,-0.0,0.0,0.02,0.0,0.0,0.0,0.02,0.0,0.0,0.0,0.02,-0.033708125,-0.15398484374999996,0.5761025,0.04,0.0,0.0,0.0,0.04,0.0,0.0,0.0,0.04
1614725349.425821,1031,1614725349,416737079,base_imu_link,-0.10746841020688688,0.0447993250992159,0.6810404547060182,0.7229297755190881,0.0025,0.0,0.0,0.0,0.0025,0.0,0.0,0.0,0.0025,-0.0,-0.0,0.0,0.02,0.0,0.0,0.0,0.02,0.0,0.0,0.0,0.02,-0.029111562499999997,-0.14938828124999998,0.5761025,0.04,0.0,0.0,0.0,0.04,0.0,0.0,0.0,0.04
1614725349.4457462,1032,1614725349,436840057,base_imu_link,-0.10763729801159153,0.04489547021939738,0.6808485957868002,0.7230793859913898,0.0025,0.0,0.0,0.0,0.0025,0.0,0.0,0.0,0.0025,-0.0,-0.0,0.0,0.02,0.0,0.0,0.0,0.02,0.0,0.0,0.0,0.02,-0.0383046875,-0.14019515624999998,0.5761025,0.04,0.0,0.0,0.0,0.04,0.0,0.0,0.0,0.04
1614725349.4647887,1033,1614725349,456857919,base_imu_link,-0.10771566229979486,0.04491218772724148,0.6811607807031107,0.7227725937809196,0.0025,0.0,0.0,0.0,0.0025,0.0,0.0,0.0,0.0025,-0.0,-0.0,-0.0,0.02,0.0,0.0,0.0,0.02,0.0,0.0,0.0,0.02,-0.04290125,-0.15398484374999996,0.5761025,0.04,0.0,0.0,0.0,0.04,0.0,0.0,0.0,0.04
1614725349.485501,1034,1614725349,477072000,base_imu_link,-0.1078179104693838,0.04496348113484982,0.6808460190922802,0.7230506772228671,0.0025,0.0,0.0,0.0,0.0025,0.0,0.0,0.0,0.0025,-0.0,-0.0,0.0,0.02,0.0,0.0,0.0,0.02,0.0,0.0,0.0,0.02,-0.04290125,-0.14938828124999998,0.6113428125,0.04,0.0,0.0,0.0,0.04,0.0,0.0,0.0,0.04
1614725349.504905,1035,1614725349,496994972,base_imu_link,-0.10789630193164544,0.0449801194291889,0.6811581866653534,0.7227438700012464,0.0025,0.0,0.0,0.0,0.0025,0.0,0.0,0.0,0.0025,-0.0,-0.0,0.0,0.02,0.0,0.0,0.0,0.02,0.0,0.0,0.0,0.02,-0.0383046875,-0.13598164062499998,0.6113428125,0.04,0.0,0.0,0.0,0.04,0.0,0.0,0.0,0.04
1614725349.5410883,1036,1614725349,517110109,base_imu_link,-0.10795901421918509,0.045034385068169376,0.6812179913618633,0.7226747564812693,0.0025,0.0,0.0,0.0,0.0025,0.0,0.0,0.0,0.0025,-0.0,-0.0,0.0,0.02,0.0,0.0,0.0,0.02,0.0,0.0,0.0,0.02,-0.029111562499999997,-0.13598164062499998,0.59372265625,0.04,0.0,0.0,0.0,0.04,0.0,0.0,0.0,0.04
1614725349.5455558,1037,1614725349,537396907,base_imu_link,-0.10809657971233694,0.045000888811185615,0.6814708680211343,0.7224178192010628,0.0025,0.0,0.0,0.0,0.0025,0.0,0.0,0.0,0.0025,-0.0,-0.0,0.0,0.02,0.0,0.0,0.0,0.02,0.0,0.0,0.0,0.02,-0.04290125,-0.14938828124999998,0.59372265625,0.04,0.0,0.0,0.0,0.04,0.0,0.0,0.0,0.04
1614725349.5671844,1038,1614725349,558130979,base_imu_link,-0.10821025465366726,0.045137652994484044,0.6814012746610194,0.7224579129335326,0.0025,0.0,0.0,0.0,0.0025,0.0,0.0,0.0,0.0025,-0.0,-0.0,0.0,0.02,0.0,0.0,0.0,0.02,0.0,0.0,0.0,0.02,-0.033708125,-0.14938828124999998,0.59372265625,0.04,0.0,0.0,0.0,0.04,0.0,0.0,0.0,0.04
1614725349.5854328,1039,1614725349,577367067,base_imu_link,-0.10828876711702348,0.04515407246499774,0.6817131555461463,0.7221508334215342,0.0025,0.0,0.0,0.0,0.0025,0.0,0.0,0.0,0.0025,-0.0,-0.0,0.0,0.02,0.0,0.0,0.0,0.02,0.0,0.0,0.0,0.02,-0.04290125,-0.158198359375,0.59372265625,0.04,0.0,0.0,0.0,0.04,0.0,0.0,0.0,0.04
1614725349.6054747,1040,1614725349,597348928,base_imu_link,-0.10843817768895185,0.04509198824120614,0.682154805694455,0.7217151067311218,0.0025,0.0,0.0,0.0,0.0025,0.0,0.0,0.0,0.0025,-0.0,-0.0,0.0,0.02,0.0,0.0,0.0,0.02,0.0,0.0,0.0,0.02,-0.04290125,-0.158198359375,0.59372265625,0.04,0.0,0.0,0.0,0.04,0.0,0.0,0.0,0.04
1614725349.6260424,1041,1614725349,617448091,base_imu_link,-0.10848915901435313,0.04517452690896312,0.6820255372182995,0.7218244461619456,0.0025,0.0,0.0,0.0,0.0025,0.0,0.0,0.0,0.0025,-0.0,-0.0,0.0,0.02,0.0,0.0,0.0,0.02,0.0,0.0,0.0,0.02,-0.033708125,-0.14938828124999998,0.6293460156249999,0.04,0.0,0.0,0.0,0.04,0.0,0.0,0.0,0.04
1614725349.6461375,1042,1614725349,637962102,base_imu_link,-0.10861888450949067,0.045159665163284686,0.6821521505561052,0.7216862102478713,0.0025,0.0,0.0,0.0,0.0025,0.0,0.0,0.0,0.0025,-0.0,-0.0,0.0,0.02,0.0,0.0,0.0,0.02,0.0,0.0,0.0,0.02,-0.033708125,-0.14938828124999998,0.59372265625,0.04,0.0,0.0,0.0,0.04,0.0,0.0,0.0,0.04
1614725349.665711,1043,1614725349,657510042,base_imu_link,-0.10867774612352038,0.04522326781293053,0.6821488489841656,0.7216764866444033,0.0025,0.0,0.0,0.0,0.0025,0.0,0.0,0.0,0.0025,-0.0,-0.0,0.0,0.02,0.0,0.0,0.0,0.02,0.0,0.0,0.0,0.02,-0.033708125,-0.15398484374999996,0.5580992968749999,0.04,0.0,0.0,0.0,0.04,0.0,0.0,0.0,0.04
1614725349.686142,1044,1614725349,677588939,base_imu_link,-0.10874055852083589,0.04527738088671383,0.6822085169249746,0.7216072263687795,0.0025,0.0,0.0,0.0,0.0025,0.0,0.0,0.0,0.0025,-0.0,-0.0,0.0,0.02,0.0,0.0,0.0,0.02,0.0,0.0,0.0,0.02,-0.029111562499999997,-0.15398484374999996,0.59372265625,0.04,0.0,0.0,0.0,0.04,0.0,0.0,0.0,0.04
1614725349.7058926,1045,1614725349,697568893,base_imu_link,-0.10887424579895189,0.04525294224306505,0.6823980461771115,0.7214093681078145,0.0025,0.0,0.0,0.0,0.0025,0.0,0.0,0.0,0.0025,-0.0,-0.0,0.0,0.02,0.0,0.0,0.0,0.02,0.0,0.0,0.0,0.02,-0.029111562499999997,-0.14479171875,0.59372265625,0.04,0.0,0.0,0.0,0.04,0.0,0.0,0.0,0.04
1614725349.7266061,1046,1614725349,717780113,base_imu_link,-0.10894498638113112,0.04528800341960051,0.6825835697619176,0.7212209487943059,0.0025,0.0,0.0,0.0,0.0025,0.0,0.0,0.0,0.0025,-0.0,-0.0,0.0,0.02,0.0,0.0,0.0,0.02,0.0,0.0,0.0,0.02,-0.0383046875,-0.15398484374999996,0.59372265625,0.04,0.0,0.0,0.0,0.04,0.0,0.0,0.0,0.04
1614725349.74596,1047,1614725349,737966060,base_imu_link,-0.10912967202139492,0.04534604482645976,0.6826438129384357,0.721132356478319,0.0025,0.0,0.0,0.0,0.0025,0.0,0.0,0.0,0.0025,-0.0,-0.0,0.0,0.02,0.0,0.0,0.0,0.02,0.0,0.0,0.0,0.02,-0.0383046875,-0.15398484374999996,0.6293460156249999,0.04,0.0,0.0,0.0,0.04,0.0,0.0,0.0,0.04
1614725349.7750304,1048,1614725349,758126974,base_imu_link,-0.10919649515492234,0.04539054718689502,0.6827663337179714,0.721003437726392,0.0025,0.0,0.0,0.0,0.0025,0.0,0.0,0.0,0.0025,-0.0,-0.0,0.0,0.02,0.0,0.0,0.0,0.02,0.0,0.0,0.0,0.02,-0.04290125,-0.14479171875,0.6293460156249999,0.04,0.0,0.0,0.0,0.04,0.0,0.0,0.0,0.04
1614725349.786484,1049,1614725349,777991056,base_imu_link,-0.10931832289209592,0.04539451412844721,0.682766962374659,0.7209841312101001,0.0025,0.0,0.0,0.0,0.0025,0.0,0.0,0.0,0.0025,-0.0,-0.0,0.0,0.02,0.0,0.0,0.0,0.02,0.0,0.0,0.0,0.02,-0.0383046875,-0.13598164062499998,0.59372265625,0.04,0.0,0.0,0.0,0.04,0.0,0.0,0.0,0.04
1614725349.806436,1050,1614725349,798224925,base_imu_link,-0.10936532615174213,0.04548669683369537,0.6825748533195449,0.7211530735306368,0.0025,0.0,0.0,0.0,0.0025,0.0,0.0,0.0,0.0025,-0.0,-0.0,0.0,0.02,0.0,0.0,0.0,0.02,0.0,0.0,0.0,0.02,-0.04290125,-0.14938828124999998,0.6293460156249999,0.04,0.0,0.0,0.0,0.04,0.0,0.0,0.0,0.04
1614725349.8263953,1051,1614725349,818152904,base_imu_link,-0.10937340949982897,0.04524043326693679,0.6825894193730647,0.7211535516463501,0.0025,0.0,0.0,0.0,0.0025,0.0,0.0,0.0,0.0025,-0.01,-0.03,-0.01,0.02,0.0,0.0,0.0,0.02,0.0,0.0,0.0,0.02,0.23212640624999997,-0.07277890625,0.39875179687499995,0.04,0.0,0.0,0.0,0.04,0.0,0.0,0.0,0.04
1614725349.8467124,1052,1614725349,838464021,base_imu_link,-0.10939348126784477,0.044738344743122514,0.6826812235919326,0.7210949269831045,0.0025,0.0,0.0,0.0,0.0025,0.0,0.0,0.0,0.0025,-0.03,-0.05,-0.01,0.02,0.0,0.0,0.0,0.02,0.0,0.0,0.0,0.02,1.7823171093749999,0.030643749999999997,-0.3995178906249999,0.04,0.0,0.0,0.0,0.04,0.0,0.0,0.0,0.04
1614725349.8664567,1053,1614725349,858403921,base_imu_link,-0.10950358598399319,0.044771002287687746,0.6824930561216652,0.7212542896624681,0.0025,0.0,0.0,0.0,0.0025,0.0,0.0,0.0,0.0025,-0.0,-0.0,-0.01,0.02,0.0,0.0,0.0,0.02,0.0,0.0,0.0,0.02,1.4199547656249998,-0.302223984375,1.9060412499999997,0.04,0.0,0.0,0.0,0.04,0.0,0.0,0.0,0.04
1614725349.8863773,1054,1614725349,878391981,base_imu_link,-0.1093425032072686,0.04454209984410189,0.682754572204851,0.721045360894318,0.0025,0.0,0.0,0.0,0.0025,0.0,0.0,0.0,0.0025,0.0,-0.04,-0.02,0.02,0.0,0.0,0.0,0.02,0.0,0.0,0.0,0.02,2.9471626562499997,-0.126788515625,-0.22216718749999997,0.04,0.0,0.0,0.0,0.04,0.0,0.0,0.0,0.04
1614725349.9039257,1055,1614725349,895908117,base_imu_link,-0.10959392165243463,0.04453092759039034,0.6828816639765225,0.7208875098303723,0.0025,0.0,0.0,0.0,0.0025,0.0,0.0,0.0,0.0025,-0.01,0.01,-0.02,0.02,0.0,0.0,0.0,0.02,0.0,0.0,0.0,0.02,1.9382171874999998,-0.14019515624999998,1.8884210937499997,0.04,0.0,0.0,0.0,0.04,0.0,0.0,0.0,0.04
1614725349.924323,1056,1614725349,915927886,base_imu_link,-0.10979038504131597,0.04433298670308067,0.6830191019361728,0.7207395951609487,0.0025,0.0,0.0,0.0,0.0025,0.0,0.0,0.0,0.0025,-0.01,-0.01,-0.05,0.02,0.0,0.0,0.0,0.02,0.0,0.0,0.0,0.02,2.30057953125,-0.027962421874999997,-1.42799875,0.04,0.0,0.0,0.0,0.04,0.0,0.0,0.0,0.04
1614725349.9450445,1057,1614725349,936050891,base_imu_link,-0.1102111186692378,0.04419089459455507,0.6828432461330547,0.7208507302951704,0.0025,0.0,0.0,0.0,0.0025,0.0,0.0,0.0,0.0025,-0.03,0.01,-0.06,0.02,0.0,0.0,0.0,0.02,0.0,0.0,0.0,0.02,1.952006875,-0.378833359375,1.3563689843749998,0.04,0.0,0.0,0.0,0.04,0.0,0.0,0.0,0.04
1614725349.9653144,1058,1614725349,956172943,base_imu_link,-0.11027001451700538,0.044254449856057275,0.6828400209987968,0.7208408793129868,0.0025,0.0,0.0,0.0,0.0025,0.0,0.0,0.0,0.0025,0.01,0.0,-0.04,0.02,0.0,0.0,0.0,0.02,0.0,0.0,0.0,0.02,1.8282827343749997,-0.536265625,0.824316875,0.04,0.0,0.0,0.0,0.04,0.0,0.0,0.0,0.04
1614725349.983966,1059,1614725349,976119041,base_imu_link,-0.11050947319923973,0.04449902392569909,0.6828899676508802,0.720741829842466,0.0025,0.0,0.0,0.0,0.0025,0.0,0.0,0.0,0.0025,0.01,0.03,-0.05,0.02,0.0,0.0,0.0,0.02,0.0,0.0,0.0,0.02,1.3739891406249998,-0.46884937499999996,1.7995542187499998,0.04,0.0,0.0,0.0,0.04,0.0,0.0,0.0,0.04
1614725350.0074215,1060,1614725349,999063014,base_imu_link,-0.11048584953296839,0.04478387498238187,0.6826240315332256,0.7209796898442189,0.0025,0.0,0.0,0.0,0.0025,0.0,0.0,0.0,0.0025,0.03,0.01,-0.09,0.02,0.0,0.0,0.0,0.02,0.0,0.0,0.0,0.02,1.53448578125,-0.12219195312499999,-0.08005679687499999,0.04,0.0,0.0,0.0,0.04,0.0,0.0,0.0,0.04
1614725350.027887,1061,1614725350,18788099,base_imu_link,-0.11076499577925025,0.04479997057910262,0.6821887015473416,0.7213478036476485,0.0025,0.0,0.0,0.0,0.0025,0.0,0.0,0.0,0.0025,0.0,0.01,-0.09,0.02,0.0,0.0,0.0,0.02,0.0,0.0,0.0,0.02,1.080575234375,0.0260471875,1.143394921875,0.04,0.0,0.0,0.0,0.04,0.0,0.0,0.0,0.04
1614725350.047187,1062,1614725350,39092063,base_imu_link,-0.11098925751016452,0.044743097143075526,0.6818193957511699,0.7216659556560066,0.0025,0.0,0.0,0.0,0.0025,0.0,0.0,0.0,0.0025,-0.0,0.01,-0.09,0.02,0.0,0.0,0.0,0.02,0.0,0.0,0.0,0.02,1.0074132812499998,-0.05477570312499999,0.09729390624999999,0.04,0.0,0.0,0.0,0.04,0.0,0.0,0.0,0.04
1614725350.0670457,1063,1614725350,58940887,base_imu_link,-0.1111818015170013,0.044668328053871886,0.6819499034961413,0.7215176204375814,0.0025,0.0,0.0,0.0,0.0025,0.0,0.0,0.0,0.0025,0.0,0.01,-0.08,0.02,0.0,0.0,0.0,0.02,0.0,0.0,0.0,0.02,0.791757890625,-0.248214375,1.001667578125,0.04,0.0,0.0,0.0,0.04,0.0,0.0,0.0,0.04
1614725350.0873756,1064,1614725350,79024076,base_imu_link,-0.11133535752855764,0.044690667981010186,0.6814506034338617,0.7219641663123074,0.0025,0.0,0.0,0.0,0.0025,0.0,0.0,0.0,0.0025,0.01,0.01,-0.09,0.02,0.0,0.0,0.0,0.02,0.0,0.0,0.0,0.02,0.6952300781249999,-0.21680453125,-0.11568015624999999,0.04,0.0,0.0,0.0,0.04,0.0,0.0,0.0,0.04
1614725350.1120534,1065,1614725350,99076032,base_imu_link,-0.1114850263390702,0.044722972602085284,0.6808879637716058,0.7224697401377905,0.0025,0.0,0.0,0.0,0.0025,0.0,0.0,0.0,0.0025,0.0,0.01,-0.1,0.02,0.0,0.0,0.0,0.02,0.0,0.0,0.0,0.02,0.4064127343749999,-0.306820546875,1.6930671875,0.04,0.0,0.0,0.0,0.04,0.0,0.0,0.0,0.04
1614725350.1285849,1066,1614725350,118848085,base_imu_link,-0.11170067916371765,0.04491318426156821,0.6805038774810721,0.7227864393353521,0.0025,0.0,0.0,0.0,0.0025,0.0,0.0,0.0,0.0025,0.01,0.03,-0.09,0.02,0.0,0.0,0.0,0.02,0.0,0.0,0.0,0.02,0.369640234375,-0.28000726562499995,0.30988492187499994,0.04,0.0,0.0,0.0,0.04,0.0,0.0,0.0,0.04
1614725350.1480367,1067,1614725350,139117956,base_imu_link,-0.11176290187690635,0.04517724718073042,0.6796139088132648,0.7235972671650852,0.0025,0.0,0.0,0.0,0.0025,0.0,0.0,0.0,0.0025,0.02,0.01,-0.1,0.02,0.0,0.0,0.0,0.02,0.0,0.0,0.0,0.02,0.4064127343749999,-0.21680453125,0.6293460156249999,0.04,0.0,0.0,0.0,0.04,0.0,0.0,0.0,0.04
1614725350.1681812,1068,1614725350,158833980,base_imu_link,-0.11203728428470092,0.045318521246554604,0.6791700449032219,0.7239626569570354,0.0025,0.0,0.0,0.0,0.0025,0.0,0.0,0.0,0.0025,0.0,0.02,-0.1,0.02,0.0,0.0,0.0,0.02,0.0,0.0,0.0,0.02,0.15398484374999996,-0.18079812499999998,0.292264765625,0.04,0.0,0.0,0.0,0.04,0.0,0.0,0.0,0.04
1614725350.187522,1069,1614725350,179390907,base_imu_link,-0.11226167070300083,0.045263349467878175,0.6787995528888822,0.7242787539917026,0.0025,0.0,0.0,0.0,0.0025,0.0,0.0,0.0,0.0025,-0.0,0.0,-0.08,0.02,0.0,0.0,0.0,0.02,0.0,0.0,0.0,0.02,0.016471015624999998,-0.29801046875,0.292264765625,0.04,0.0,0.0,0.0,0.04,0.0,0.0,0.0,0.04
1614725350.2082136,1070,1614725350,198991060,base_imu_link,-0.11237312179504352,0.04507079364891009,0.6784984698503447,0.7245555406375929,0.0025,0.0,0.0,0.0,0.0025,0.0,0.0,0.0,0.0025,-0.01,-0.01,-0.06,0.02,0.0,0.0,0.0,0.02,0.0,0.0,0.0,0.02,-0.011108359374999998,-0.21680453125,0.7710733593749999,0.04,0.0,0.0,0.0,0.04,0.0,0.0,0.0,0.04
1614725350.2287593,1071,1614725350,219639062,base_imu_link,-0.11270331301513918,0.04496197137842119,0.6788831951654377,0.7241505310963626,0.0025,0.0,0.0,0.0,0.0025,0.0,0.0,0.0,0.0025,-0.01,0.01,-0.06,0.02,0.0,0.0,0.0,0.02,0.0,0.0,0.0,0.02,0.011874453124999998,-0.09997523437499999,-0.18654382812499998,0.04,0.0,0.0,0.0,0.04,0.0,0.0,0.0,0.04
1614725350.2471569,1072,1614725350,239048004,base_imu_link,-0.11291316096414475,0.04462170453865293,0.679154712867002,0.7238842432016948,0.0025,0.0,0.0,0.0,0.0025,0.0,0.0,0.0,0.0025,-0.01,-0.01,-0.06,0.02,0.0,0.0,0.0,0.02,0.0,0.0,0.0,0.02,-0.1670084375,0.10725312499999999,0.522858984375,0.04,0.0,0.0,0.0,0.04,0.0,0.0,0.0,0.04
1614725350.269128,1073,1614725350,259217023,base_imu_link,-0.1132143506890886,0.044251637847821546,0.6788651909795336,0.7241314492701962,0.0025,0.0,0.0,0.0,0.0025,0.0,0.0,0.0,0.0025,-0.04,-0.02,-0.06,0.02,0.0,0.0,0.0,0.02,0.0,0.0,0.0,0.02,-0.1578153125,0.089249921875,0.46961546874999993,0.04,0.0,0.0,0.0,0.04,0.0,0.0,0.0,0.04
1614725350.288705,1074,1614725350,279185056,base_imu_link,-0.1136096433047874,0.043743305985535434,0.6790846905643573,0.7238945746244586,0.0025,0.0,0.0,0.0,0.0025,0.0,0.0,0.0,0.0025,-0.05,-0.02,-0.05,0.02,0.0,0.0,0.0,0.02,0.0,0.0,0.0,0.02,-0.20339789062499997,-0.14019515624999998,0.505238828125,0.04,0.0,0.0,0.0,0.04,0.0,0.0,0.0,0.04
1614725350.3084369,1075,1614725350,299303054,base_imu_link,-0.11398577108773371,0.043284489626347296,0.6789879562091632,0.7239537639036244,0.0025,0.0,0.0,0.0,0.0025,0.0,0.0,0.0,0.0025,-0.05,-0.01,-0.05,0.02,0.0,0.0,0.0,0.02,0.0,0.0,0.0,0.02,-0.07967375,-0.36083015625,-0.09806,0.04,0.0,0.0,0.0,0.04,0.0,0.0,0.0,0.04
1614725350.3286297,1076,1614725350,319555044,base_imu_link,-0.11410458749580475,0.04318589887860815,0.6788691398010922,0.7240523546513635,0.0025,0.0,0.0,0.0,0.0025,0.0,0.0,0.0,0.0025,-0.01,-0.01,-0.05,0.02,0.0,0.0,0.0,0.02,0.0,0.0,0.0,0.02,-0.029111562499999997,-0.39224,-0.11568015624999999,0.04,0.0,0.0,0.0,0.04,0.0,0.0,0.0,0.04
1614725350.3480308,1077,1614725350,339538097,base_imu_link,-0.11407818544361575,0.04325559334274759,0.6784267147523503,0.7244669170920036,0.0025,0.0,0.0,0.0,0.0025,0.0,0.0,0.0,0.0025,0.02,0.0,-0.05,0.02,0.0,0.0,0.0,0.02,0.0,0.0,0.0,0.02,-0.144025625,-0.35202007812499997,1.9416646093749999,0.04,0.0,0.0,0.0,0.04,0.0,0.0,0.0,0.04
1614725350.3679655,1078,1614725350,359533071,base_imu_link,-0.1139583398999572,0.04346730060894649,0.6786020038116458,0.7243089195694309,0.0025,0.0,0.0,0.0,0.0025,0.0,0.0,0.0,0.0025,0.04,0.0,-0.06,0.02,0.0,0.0,0.0,0.02,0.0,0.0,0.0,0.02,-0.09806,-0.3294203125,1.232261796875,0.04,0.0,0.0,0.0,0.04,0.0,0.0,0.0,0.04
1614725350.3888652,1079,1614725350,379580020,base_imu_link,-0.11386651773620757,0.04382247090593693,0.6782684178744293,0.7246143529467566,0.0025,0.0,0.0,0.0,0.0025,0.0,0.0,0.0,0.0025,0.04,0.01,-0.07,0.02,0.0,0.0,0.0,0.02,0.0,0.0,0.0,0.02,-0.029111562499999997,-0.07737546875,-0.204163984375,0.04,0.0,0.0,0.0,0.04,0.0,0.0,0.0,0.04
1614725350.4076867,1080,1614725350,399962902,base_imu_link,-0.11423914196236482,0.04381677729246187,0.6783972279884463,0.7244354419332324,0.0025,0.0,0.0,0.0,0.0025,0.0,0.0,0.0,0.0025,-0.01,0.02,-0.08,0.02,0.0,0.0,0.0,0.02,0.0,0.0,0.0,0.02,-0.24476695312499996,-0.0413690625,-0.168923671875,0.04,0.0,0.0,0.0,0.04,0.0,0.0,0.0,0.04
1614725350.430104,1081,1614725350,419939041,base_imu_link,-0.1145428225794738,0.04366389032990489,0.6782830232161705,0.7245036555418592,0.0025,0.0,0.0,0.0,0.0025,0.0,0.0,0.0,0.0025,-0.02,0.0,-0.07,0.02,0.0,0.0,0.0,0.02,0.0,0.0,0.0,0.02,-0.11644624999999999,-0.00995921875,0.5404791406249999,0.04,0.0,0.0,0.0,0.04,0.0,0.0,0.0,0.04
1614725350.4480767,1082,1614725350,439774990,base_imu_link,-0.11475719116145246,0.04319999315654954,0.6785608318753316,0.7242373541268537,0.0025,0.0,0.0,0.0,0.0025,0.0,0.0,0.0,0.0025,-0.03,-0.02,-0.04,0.02,0.0,0.0,0.0,0.02,0.0,0.0,0.0,0.02,-0.318311953125,-0.22140109375,1.711070390625,0.04,0.0,0.0,0.0,0.04,0.0,0.0,0.0,0.04
1614725350.469052,1083,1614725350,459750890,base_imu_link,-0.11495236328119182,0.04322849485246821,0.6788113842868455,0.7239698584688699,0.0025,0.0,0.0,0.0,0.0025,0.0,0.0,0.0,0.0025,-0.0,0.01,-0.02,0.02,0.0,0.0,0.0,0.02,0.0,0.0,0.0,0.02,-0.17620156249999996,-0.26200406249999997,0.16815757812499998,0.04,0.0,0.0,0.0,0.04,0.0,0.0,0.0,0.04
1614725350.4890027,1084,1614725350,480405092,base_imu_link,-0.11521825343484032,0.04317749674024086,0.6791918991303163,0.7235736465671107,0.0025,0.0,0.0,0.0,0.0025,0.0,0.0,0.0,0.0025,-0.01,0.01,-0.02,0.02,0.0,0.0,0.0,0.02,0.0,0.0,0.0,0.02,-0.18960820312499999,-0.126788515625,-0.6121089062499999,0.04,0.0,0.0,0.0,0.04,0.0,0.0,0.0,0.04
1614725350.5084696,1085,1614725350,500149011,base_imu_link,-0.11542183025823896,0.04307246582402356,0.6795120758007711,0.723246778512427,0.0025,0.0,0.0,0.0,0.0025,0.0,0.0,0.0,0.0025,-0.02,-0.0,-0.01,0.02,0.0,0.0,0.0,0.02,0.0,0.0,0.0,0.02,0.034857265625,-0.10418875,-0.168923671875,0.04,0.0,0.0,0.0,0.04,0.0,0.0,0.0,0.04
1614725350.5291824,1086,1614725350,520325899,base_imu_link,-0.11592416363855976,0.04293715440838033,0.6797111764882112,0.7229873481694012,0.0025,0.0,0.0,0.0,0.0025,0.0,0.0,0.0,0.0025,-0.04,0.01,-0.01,0.02,0.0,0.0,0.0,0.02,0.0,0.0,0.0,0.02,-0.0934634375,-0.10418875,0.7710733593749999,0.04,0.0,0.0,0.0,0.04,0.0,0.0,0.0,0.04
1614725350.5484898,1087,1614725350,540374994,base_imu_link,-0.11633907329351939,0.04259274223872505,0.6804205311010587,0.7222734795006279,0.0025,0.0,0.0,0.0,0.0025,0.0,0.0,0.0,0.0025,-0.04,-0.0,-0.0,0.02,0.0,0.0,0.0,0.02,0.0,0.0,0.0,0.02,0.108402265625,-0.090782109375,0.8066967187499999,0.04,0.0,0.0,0.0,0.04,0.0,0.0,0.0,0.04
1614725350.572213,1088,1614725350,560496091,base_imu_link,-0.11668673534018807,0.042317190035425604,0.6810624014955378,0.721628343742321,0.0025,0.0,0.0,0.0,0.0025,0.0,0.0,0.0,0.0025,-0.04,-0.0,0.0,0.02,0.0,0.0,0.0,0.02,0.0,0.0,0.0,0.02,-0.029111562499999997,-0.171988046875,1.3563689843749998,0.04,0.0,0.0,0.0,0.04,0.0,0.0,0.0,0.04
1614725350.6250818,1089,1614725350,580193042,base_imu_link,-0.11679655900541494,0.042351218438955826,0.6819967635583899,0.7207255737082681,0.0025,0.0,0.0,0.0,0.0025,0.0,0.0,0.0,0.0025,0.01,0.01,0.01,0.02,0.0,0.0,0.0,0.02,0.0,0.0,0.0,0.02,-0.0199184375,-0.21680453125,0.1149140625,0.04,0.0,0.0,0.0,0.04,0.0,0.0,0.0,0.04
1614725350.6251116,1090,1614725350,600277900,base_imu_link,-0.11670038827707585,0.042388786779382306,0.6824923708456685,0.7202696535803866,0.0025,0.0,0.0,0.0,0.0025,0.0,0.0,0.0,0.0025,0.02,-0.02,0.0,0.02,0.0,0.0,0.0,0.02,0.0,0.0,0.0,0.02,-0.024515,-0.113381875,0.6293460156249999,0.04,0.0,0.0,0.0,0.04,0.0,0.0,0.0,0.04
1614725350.629898,1091,1614725350,620826005,base_imu_link,-0.11684122372876068,0.04211591709800675,0.6826949772861454,0.7200707923203309,0.0025,0.0,0.0,0.0,0.0025,0.0,0.0,0.0,0.0025,-0.03,-0.02,-0.02,0.02,0.0,0.0,0.0,0.02,0.0,0.0,0.0,0.02,-0.07507718749999999,-0.032175937499999994,1.9592847656249999,0.04,0.0,0.0,0.0,0.04,0.0,0.0,0.0,0.04
1614725350.6489072,1092,1614725350,640249013,base_imu_link,-0.1171327143928993,0.04176518896005387,0.6834005014149132,0.7193742773243479,0.0025,0.0,0.0,0.0,0.0025,0.0,0.0,0.0,0.0025,-0.02,-0.01,-0.02,0.02,0.0,0.0,0.0,0.02,0.0,0.0,0.0,0.02,-0.171605,-0.23480773437499997,0.18577773437499998,0.04,0.0,0.0,0.0,0.04,0.0,0.0,0.0,0.04
1614725350.6690829,1093,1614725350,660368919,base_imu_link,-0.11710296756469674,0.04161991165472508,0.6839055404342613,0.7189074277712779,0.0025,0.0,0.0,0.0,0.0025,0.0,0.0,0.0,0.0025,0.01,-0.02,-0.02,0.02,0.0,0.0,0.0,0.02,0.0,0.0,0.0,0.02,-0.0383046875,-0.34282695312499994,-1.07329734375,0.04,0.0,0.0,0.0,0.04,0.0,0.0,0.0,0.04
1614725350.6893377,1094,1614725350,680326938,base_imu_link,-0.11699587255806795,0.04157526365405167,0.6841558053179037,0.7186892912144187,0.0025,0.0,0.0,0.0,0.0025,0.0,0.0,0.0,0.0025,0.01,-0.02,-0.02,0.02,0.0,0.0,0.0,0.02,0.0,0.0,0.0,0.02,-0.10265656249999999,-0.26621757812499997,0.487235625,0.04,0.0,0.0,0.0,0.04,0.0,0.0,0.0,0.04
1614725350.7085037,1095,1614725350,700238943,base_imu_link,-0.11696592402038367,0.04143014324755217,0.6846603719700908,0.7182218953097448,0.0025,0.0,0.0,0.0,0.0025,0.0,0.0,0.0,0.0025,0.01,-0.02,-0.03,0.02,0.0,0.0,0.0,0.02,0.0,0.0,0.0,0.02,-0.144025625,-0.18999124999999997,0.9660442187499999,0.04,0.0,0.0,0.0,0.04,0.0,0.0,0.0,0.04
1614725350.7319438,1096,1614725350,720675945,base_imu_link,-0.11696636414397232,0.041091221804322176,0.684492041039813,0.7184017169402637,0.0025,0.0,0.0,0.0,0.0025,0.0,0.0,0.0,0.0025,-0.01,-0.03,-0.07,0.02,0.0,0.0,0.0,0.02,0.0,0.0,0.0,0.02,0.05784007812499999,-0.113381875,0.09729390624999999,0.04,0.0,0.0,0.0,0.04,0.0,0.0,0.0,0.04
1614725350.7490942,1097,1614725350,740869998,base_imu_link,-0.11711332312979458,0.0407974743688942,0.6848190999690967,0.7180827500700264,0.0025,0.0,0.0,0.0,0.0025,0.0,0.0,0.0,0.0025,-0.01,-0.01,-0.07,0.02,0.0,0.0,0.0,0.02,0.0,0.0,0.0,0.02,0.103805703125,-0.23480773437499997,-0.168923671875,0.04,0.0,0.0,0.0,0.04,0.0,0.0,0.0,0.04
1614725350.7879026,1098,1614725350,760883092,base_imu_link,-0.11719358139229039,0.040912501826188115,0.6852481555559348,0.7176536748195192,0.0025,0.0,0.0,0.0,0.0025,0.0,0.0,0.0,0.0025,0.02,0.01,-0.06,0.02,0.0,0.0,0.0,0.02,0.0,0.0,0.0,0.02,-0.0566909375,-0.35623359375,0.46961546874999993,0.04,0.0,0.0,0.0,0.04,0.0,0.0,0.0,0.04
1614725350.7903008,1099,1614725350,781029939,base_imu_link,-0.11725968655306293,0.04118133033336949,0.6854825273974432,0.7174036301652404,0.0025,0.0,0.0,0.0,0.0025,0.0,0.0,0.0,0.0025,0.04,0.02,-0.06,0.02,0.0,0.0,0.0,0.02,0.0,0.0,0.0,0.02,0.09920914062499998,-0.23480773437499997,1.3383657812499998,0.04,0.0,0.0,0.0,0.04,0.0,0.0,0.0,0.04
1614725350.809249,1100,1614725350,800887107,base_imu_link,-0.11729340194691688,0.04154224525403957,0.6851532114733887,0.7176918395291073,0.0025,0.0,0.0,0.0,0.0025,0.0,0.0,0.0,0.0025,0.03,0.03,-0.07,0.02,0.0,0.0,0.0,0.02,0.0,0.0,0.0,0.02,-0.09806,-0.014172734375,0.5761025,0.04,0.0,0.0,0.0,0.04,0.0,0.0,0.0,0.04
1614725350.829613,1101,1614725350,821413993,base_imu_link,-0.11756194592642819,0.04136471189691199,0.6855367311447004,0.7172918093294499,0.0025,0.0,0.0,0.0,0.0025,0.0,0.0,0.0,0.0025,-0.0,0.01,-0.06,0.02,0.0,0.0,0.0,0.02,0.0,0.0,0.0,0.02,-0.0383046875,-0.126788515625,-0.5944887499999999,0.04,0.0,0.0,0.0,0.04,0.0,0.0,0.0,0.04
1614725350.8495955,1102,1614725350,841387033,base_imu_link,-0.11776776062345407,0.041246764829550545,0.6859164038178768,0.7169017686701462,0.0025,0.0,0.0,0.0,0.0025,0.0,0.0,0.0,0.0025,-0.01,-0.0,-0.05,0.02,0.0,0.0,0.0,0.02,0.0,0.0,0.0,0.02,0.030260703125,-0.39224,0.30988492187499994,0.04,0.0,0.0,0.0,0.04,0.0,0.0,0.0,0.04
1614725350.8703928,1103,1614725350,861444950,base_imu_link,-0.1178556166158464,0.04122782461093447,0.6864137111798645,0.7164122676324256,0.0025,0.0,0.0,0.0,0.0025,0.0,0.0,0.0,0.0025,0.01,0.0,-0.03,0.02,0.0,0.0,0.0,0.02,0.0,0.0,0.0,0.02,-0.04290125,-0.401433125,0.9484240625,0.04,0.0,0.0,0.0,0.04,0.0,0.0,0.0,0.04
1614725350.8895466,1104,1614725350,881285905,base_imu_link,-0.11789487250492511,0.04100176900174191,0.6870452444998241,0.715813164160839,0.0025,0.0,0.0,0.0,0.0025,0.0,0.0,0.0,0.0025,0.01,-0.01,-0.06,0.02,0.0,0.0,0.0,0.02,0.0,0.0,0.0,0.02,0.20454703124999998,-0.027962421874999997,0.6113428125,0.04,0.0,0.0,0.0,0.04,0.0,0.0,0.0,0.04
1614725350.9096549,1105,1614725350,900897979,base_imu_link,-0.1181926406417625,0.04051748398383176,0.6867012454524255,0.7161216605325067,0.0025,0.0,0.0,0.0,0.0025,0.0,0.0,0.0,0.0025,-0.04,-0.02,-0.09,0.02,0.0,0.0,0.0,0.02,0.0,0.0,0.0,0.02,0.08082289062499999,0.23327554687499996,0.22140109375,0.04,0.0,0.0,0.0,0.04,0.0,0.0,0.0,0.04
1614725350.9297101,1106,1614725350,921334981,base_imu_link,-0.11876550694948095,0.03994704627799661,0.6869202883267485,0.7158488006121078,0.0025,0.0,0.0,0.0,0.0025,0.0,0.0,0.0,0.0025,-0.06,-0.01,-0.06,0.02,0.0,0.0,0.0,0.02,0.0,0.0,0.0,0.02,-0.171605,-0.05477570312499999,0.6293460156249999,0.04,0.0,0.0,0.0,0.04,0.0,0.0,0.0,0.04
1614725350.9509249,1107,1614725350,941301107,base_imu_link,-0.1190326923112642,0.039655329401148694,0.6872464550802495,0.7155075003036996,0.0025,0.0,0.0,0.0,0.0025,0.0,0.0,0.0,0.0025,-0.03,-0.01,-0.02,0.02,0.0,0.0,0.0,0.02,0.0,0.0,0.0,0.02,-0.13023593749999998,-0.26621757812499997,0.84193703125,0.04,0.0,0.0,0.0,0.04,0.0,0.0,0.0,0.04
1614725351.0067134,1108,1614725350,961519956,base_imu_link,-0.11927545514754387,0.03932345245932539,0.687079229520365,0.7156459768962073,0.0025,0.0,0.0,0.0,0.0025,0.0,0.0,0.0,0.0025,-0.03,-0.02,-0.05,0.02,0.0,0.0,0.0,0.02,0.0,0.0,0.0,0.02,0.16777453124999997,-0.34742351562499996,0.5761025,0.04,0.0,0.0,0.0,0.04,0.0,0.0,0.0,0.04
1614725351.006729,1109,1614725350,981664896,base_imu_link,-0.11951843224935635,0.03910447467001534,0.686968007159341,0.7157242077455266,0.0025,0.0,0.0,0.0,0.0025,0.0,0.0,0.0,0.0025,-0.02,-0.01,-0.07,0.02,0.0,0.0,0.0,0.02,0.0,0.0,0.0,0.02,-0.0019152343749999998,-0.28881734374999996,-0.3995178906249999,0.04,0.0,0.0,0.0,0.04,0.0,0.0,0.0,0.04
1614725351.0103054,1110,1614725351,1766920,base_imu_link,-0.11970238534920843,0.03870954115727684,0.6868032266035722,0.7158730601803821,0.0025,0.0,0.0,0.0,0.0025,0.0,0.0,0.0,0.0025,-0.02,-0.01,-0.08,0.02,0.0,0.0,0.0,0.02,0.0,0.0,0.0,0.02,0.007277890624999999,-0.306820546875,0.1149140625,0.04,0.0,0.0,0.0,0.04,0.0,0.0,0.0,0.04
1614725351.0302062,1111,1614725351,22202014,base_imu_link,-0.11976486780326523,0.03887512682525755,0.68691915765227,0.7157423920690199,0.0025,0.0,0.0,0.0,0.0025,0.0,0.0,0.0,0.0025,0.02,0.01,-0.06,0.02,0.0,0.0,0.0,0.02,0.0,0.0,0.0,0.02,-0.11184968749999999,-0.41483976562499997,1.994525078125,0.04,0.0,0.0,0.0,0.04,0.0,0.0,0.0,0.04
1614725351.0499144,1112,1614725351,41444063,base_imu_link,-0.11958095262709745,0.039157299133991214,0.6870276199460523,0.7156536530505451,0.0025,0.0,0.0,0.0,0.0025,0.0,0.0,0.0,0.0025,0.05,0.01,-0.05,0.02,0.0,0.0,0.0,0.02,0.0,0.0,0.0,0.02,-0.11184968749999999,-0.35202007812499997,0.327888125,0.04,0.0,0.0,0.0,0.04,0.0,0.0,0.0,0.04
1614725351.0700114,1113,1614725351,62112092,base_imu_link,-0.11950836599993434,0.03947409715802023,0.6869491535358755,0.7157236942884658,0.0025,0.0,0.0,0.0,0.0025,0.0,0.0,0.0,0.0025,0.04,0.01,-0.07,0.02,0.0,0.0,0.0,0.02,0.0,0.0,0.0,0.02,0.05784007812499999,-0.18079812499999998,-1.002433671875,0.04,0.0,0.0,0.0,0.04,0.0,0.0,0.0,0.04
1614725351.0893943,1114,1614725351,81583976,base_imu_link,-0.11967528373419675,0.03969520275493647,0.6867531226676616,0.7158716825294876,0.0025,0.0,0.0,0.0,0.0025,0.0,0.0,0.0,0.0025,0.02,0.03,-0.08,0.02,0.0,0.0,0.0,0.02,0.0,0.0,0.0,0.02,-0.06588406249999999,-0.17620156249999996,1.1966384374999999,0.04,0.0,0.0,0.0,0.04,0.0,0.0,0.0,0.04
1614725351.1099756,1115,1614725351,101954936,base_imu_link,-0.11979692457436572,0.03981129363067307,0.6868098094355631,0.7157905024691662,0.0025,0.0,0.0,0.0,0.0025,0.0,0.0,0.0,0.0025,0.02,0.01,-0.06,0.02,0.0,0.0,0.0,0.02,0.0,0.0,0.0,0.02,-0.198801328125,-0.11797843749999999,1.6754470312499998,0.04,0.0,0.0,0.0,0.04,0.0,0.0,0.0,0.04
1614725351.1300888,1116,1614725351,121664047,base_imu_link,-0.11969247727244108,0.03953022074701085,0.6870093054959042,0.7156320889214753,0.0025,0.0,0.0,0.0,0.0025,0.0,0.0,0.0,0.0025,0.01,-0.02,-0.07,0.02,0.0,0.0,0.0,0.02,0.0,0.0,0.0,0.02,0.04405039062499999,-0.14938828124999998,0.1149140625,0.04,0.0,0.0,0.0,0.04,0.0,0.0,0.0,0.04
1614725351.1487274,1117,1614725351,139780998,base_imu_link,-0.12004670919175112,0.03945882030155674,0.6867675176396624,0.7158087494769093,0.0025,0.0,0.0,0.0,0.0025,0.0,0.0,0.0,0.0025,-0.02,0.01,-0.08,0.02,0.0,0.0,0.0,0.02,0.0,0.0,0.0,0.02,0.007277890624999999,-0.10878531249999998,-1.144161015625,0.04,0.0,0.0,0.0,0.04,0.0,0.0,0.0,0.04
1614725351.1707633,1118,1614725351,162221908,base_imu_link,-0.12053281121946847,0.039359499934570205,0.6867136796696334,0.7157841806990599,0.0025,0.0,0.0,0.0,0.0025,0.0,0.0,0.0,0.0025,-0.02,0.03,-0.07,0.02,0.0,0.0,0.0,0.02,0.0,0.0,0.0,0.02,-0.26315320312499996,-0.198801328125,0.07929070312499999,0.04,0.0,0.0,0.0,0.04,0.0,0.0,0.0,0.04
1614725351.190047,1119,1614725351,181813955,base_imu_link,-0.12074763170267268,0.039208101914661314,0.6872796362353739,0.7152128604818409,0.0025,0.0,0.0,0.0,0.0025,0.0,0.0,0.0,0.0025,-0.01,-0.0,-0.04,0.02,0.0,0.0,0.0,0.02,0.0,0.0,0.0,0.02,-0.0199184375,-0.28000726562499995,0.327888125,0.04,0.0,0.0,0.0,0.04,0.0,0.0,0.0,0.04
1614725351.225219,1120,1614725351,202152967,base_imu_link,-0.12100747842921782,0.038936515331078184,0.6874804882608192,0.7149907105681449,0.0025,0.0,0.0,0.0,0.0025,0.0,0.0,0.0,0.0025,-0.02,-0.0,-0.06,0.02,0.0,0.0,0.0,0.02,0.0,0.0,0.0,0.02,-0.0383046875,-0.23021117187499998,1.161015078125,0.04,0.0,0.0,0.0,0.04,0.0,0.0,0.0,0.04
1614725351.231202,1121,1614725351,222656011,base_imu_link,-0.12142745401511665,0.03868215447938548,0.6872483837570902,0.7151564327890135,0.0025,0.0,0.0,0.0,0.0025,0.0,0.0,0.0,0.0025,-0.03,0.01,-0.08,0.02,0.0,0.0,0.0,0.02,0.0,0.0,0.0,0.02,0.030260703125,-0.113381875,0.6822064843749999,0.04,0.0,0.0,0.0,0.04,0.0,0.0,0.0,0.04
1614725351.2796843,1122,1614725351,242470979,base_imu_link,-0.12167704030157517,0.038217059787053545,0.687149248168569,0.7152342727708537,0.0025,0.0,0.0,0.0,0.0025,0.0,0.0,0.0,0.0025,-0.03,-0.01,-0.1,0.02,0.0,0.0,0.0,0.02,0.0,0.0,0.0,0.02,0.04405039062499999,-0.25281093749999994,1.019287734375,0.04,0.0,0.0,0.0,0.04,0.0,0.0,0.0,0.04
1614725351.279719,1123,1614725351,262412071,base_imu_link,-0.12183769937948835,0.0381222312704692,0.6866597569438666,0.7156819465982528,0.0025,0.0,0.0,0.0,0.0025,0.0,0.0,0.0,0.0025,0.0,-0.01,-0.09,0.02,0.0,0.0,0.0,0.02,0.0,0.0,0.0,0.02,-0.011108359374999998,-0.46425281249999995,0.9840474218749999,0.04,0.0,0.0,0.0,0.04,0.0,0.0,0.0,0.04
1614725351.2912955,1124,1614725351,282592058,base_imu_link,-0.121824384787904,0.03816475832721096,0.686409894987931,0.7159215924635404,0.0025,0.0,0.0,0.0,0.0025,0.0,0.0,0.0,0.0025,0.02,0.0,-0.09,0.02,0.0,0.0,0.0,0.02,0.0,0.0,0.0,0.02,-0.15321875,-0.4420360937499999,0.824316875,0.04,0.0,0.0,0.0,0.04,0.0,0.0,0.0,0.04
1614725351.3104978,1125,1614725351,302650928,base_imu_link,-0.12207774446625831,0.037801935289360024,0.6864291800143372,0.7158791928944818,0.0025,0.0,0.0,0.0,0.0025,0.0,0.0,0.0,0.0025,-0.02,-0.01,-0.11,0.02,0.0,0.0,0.0,0.02,0.0,0.0,0.0,0.02,0.108402265625,-0.32482374999999997,1.462856015625,0.04,0.0,0.0,0.0,0.04,0.0,0.0,0.0,0.04
1614725351.3347342,1126,1614725351,322565078,base_imu_link,-0.12229427395968674,0.03789415080533622,0.6859304732315442,0.7163152446959126,0.0025,0.0,0.0,0.0,0.0025,0.0,0.0,0.0,0.0025,0.02,0.02,-0.12,0.02,0.0,0.0,0.0,0.02,0.0,0.0,0.0,0.02,-0.35048789062499996,-0.270814140625,0.7178298437499999,0.04,0.0,0.0,0.0,0.04,0.0,0.0,0.0,0.04
1614725351.3510416,1127,1614725351,342781066,base_imu_link,-0.1222125073119903,0.03779290489219812,0.6854388729565811,0.7168049601086321,0.0025,0.0,0.0,0.0,0.0025,0.0,0.0,0.0,0.0025,0.02,-0.01,-0.11,0.02,0.0,0.0,0.0,0.02,0.0,0.0,0.0,0.02,-0.570356796875,-0.113381875,-1.2682682031249999,0.04,0.0,0.0,0.0,0.04,0.0,0.0,0.0,0.04
1614725351.3724709,1128,1614725351,363459110,base_imu_link,-0.12251798988364425,0.03774025648038092,0.6854434393290468,0.7167512167247667,0.0025,0.0,0.0,0.0,0.0025,0.0,0.0,0.0,0.0025,-0.01,0.01,-0.09,0.02,0.0,0.0,0.0,0.02,0.0,0.0,0.0,0.02,-1.0748295312499998,-0.334016875,0.4163719531249999,0.04,0.0,0.0,0.0,0.04,0.0,0.0,0.0,0.04
1614725351.3917232,1129,1614725351,383282899,base_imu_link,-0.12279472239558345,0.03755906353412361,0.6847715452699848,0.7173553538427021,0.0025,0.0,0.0,0.0,0.0025,0.0,0.0,0.0,0.0025,-0.01,0.0,-0.1,0.02,0.0,0.0,0.0,0.02,0.0,0.0,0.0,0.02,-0.726256875,-0.126788515625,0.22140109375,0.04,0.0,0.0,0.0,0.04,0.0,0.0,0.0,0.04
1614725351.412219,1130,1614725351,402770042,base_imu_link,-0.12333928526933863,0.03697336401327134,0.6843683460008503,0.7176770569377645,0.0025,0.0,0.0,0.0,0.0025,0.0,0.0,0.0,0.0025,-0.06,-0.01,-0.1,0.02,0.0,0.0,0.0,0.02,0.0,0.0,0.0,0.02,-0.47421203125,-0.113381875,0.292264765625,0.04,0.0,0.0,0.0,0.04,0.0,0.0,0.0,0.04
1614725351.4319847,1131,1614725351,422885894,base_imu_link,-0.12352844642703162,0.03656931396955709,0.6842641885096721,0.7177645355702102,0.0025,0.0,0.0,0.0,0.0025,0.0,0.0,0.0,0.0025,-0.03,-0.02,-0.09,0.02,0.0,0.0,0.0,0.02,0.0,0.0,0.0,0.02,-0.10265656249999999,-0.31601367187499996,1.07253125,0.04,0.0,0.0,0.0,0.04,0.0,0.0,0.0,0.04
1614725351.4508095,1132,1614725351,442791938,base_imu_link,-0.12387469402483878,0.03697197749779911,0.6841237506738287,0.717818101488203,0.0025,0.0,0.0,0.0,0.0025,0.0,0.0,0.0,0.0025,0.02,0.05,-0.07,0.02,0.0,0.0,0.0,0.02,0.0,0.0,0.0,0.02,-0.24936351562499998,-0.34742351562499996,1.5337196874999999,0.04,0.0,0.0,0.0,0.04,0.0,0.0,0.0,0.04
1614725351.4710205,1133,1614725351,463079929,base_imu_link,-0.12384958715754013,0.036946042016507336,0.683565523504212,0.7183553750175703,0.0025,0.0,0.0,0.0,0.0025,0.0,0.0,0.0,0.0025,0.02,-0.01,-0.1,0.02,0.0,0.0,0.0,0.02,0.0,0.0,0.0,0.02,0.33286773437499995,-0.21220796874999998,-0.204163984375,0.04,0.0,0.0,0.0,0.04,0.0,0.0,0.0,0.04
1614725351.4910648,1134,1614725351,482925891,base_imu_link,-0.12404303486892357,0.03722865337331188,0.6826830795617089,0.7191461365735466,0.0025,0.0,0.0,0.0,0.0025,0.0,0.0,0.0,0.0025,0.02,0.03,-0.1,0.02,0.0,0.0,0.0,0.02,0.0,0.0,0.0,0.02,-0.10265656249999999,-0.131385078125,0.39875179687499995,0.04,0.0,0.0,0.0,0.04,0.0,0.0,0.0,0.04
1614725351.5112238,1135,1614725351,503125905,base_imu_link,-0.1240733083446322,0.037277366461849565,0.6820585019616097,0.7197307913435216,0.0025,0.0,0.0,0.0,0.0025,0.0,0.0,0.0,0.0025,0.01,0.0,-0.09,0.02,0.0,0.0,0.0,0.02,0.0,0.0,0.0,0.02,0.18616078125,-0.023365859375,0.026430234374999997,0.04,0.0,0.0,0.0,0.04,0.0,0.0,0.0,0.04
1614725351.531875,1136,1614725351,523488044,base_imu_link,-0.12428023096075433,0.03740501342684426,0.6813688387793055,0.7203414431388906,0.0025,0.0,0.0,0.0,0.0025,0.0,0.0,0.0,0.0025,0.0,0.01,-0.08,0.02,0.0,0.0,0.0,0.02,0.0,0.0,0.0,0.02,0.18616078125,-0.18999124999999997,1.21425859375,0.04,0.0,0.0,0.0,0.04,0.0,0.0,0.0,0.04
1614725351.5522563,1137,1614725351,543268918,base_imu_link,-0.12439944282102591,0.03730780392793403,0.6812496269190341,0.7204386526378008,0.0025,0.0,0.0,0.0,0.0025,0.0,0.0,0.0,0.0025,0.0,-0.0,-0.07,0.02,0.0,0.0,0.0,0.02,0.0,0.0,0.0,0.02,0.07622632812499999,-0.311417109375,-0.168923671875,0.04,0.0,0.0,0.0,0.04,0.0,0.0,0.0,0.04
1614725351.5728774,1138,1614725351,563637018,base_imu_link,-0.12449516080147818,0.0370728850730248,0.6805127186153529,0.7211303598740785,0.0025,0.0,0.0,0.0,0.0025,0.0,0.0,0.0,0.0025,-0.01,-0.02,-0.1,0.02,0.0,0.0,0.0,0.02,0.0,0.0,0.0,0.02,0.53933,-0.26200406249999997,0.433992109375,0.04,0.0,0.0,0.0,0.04,0.0,0.0,0.0,0.04
1614725351.5931377,1139,1614725351,583815097,base_imu_link,-0.12479241746713556,0.03694271777305481,0.6802714586211119,0.7213132680962923,0.0025,0.0,0.0,0.0,0.0025,0.0,0.0,0.0,0.0025,-0.01,0.01,-0.11,0.02,0.0,0.0,0.0,0.02,0.0,0.0,0.0,0.02,0.140578203125,-0.095378671875,1.4096124999999997,0.04,0.0,0.0,0.0,0.04,0.0,0.0,0.0,0.04
1614725351.6112504,1140,1614725351,603244066,base_imu_link,-0.1250826985725453,0.03640728191148957,0.6795484940444206,0.721971379338258,0.0025,0.0,0.0,0.0,0.0025,0.0,0.0,0.0,0.0025,-0.04,-0.03,-0.1,0.02,0.0,0.0,0.0,0.02,0.0,0.0,0.0,0.02,0.15858140624999997,-0.09997523437499999,0.20339789062499997,0.04,0.0,0.0,0.0,0.04,0.0,0.0,0.0,0.04
1614725351.631681,1141,1614725351,623586893,base_imu_link,-0.12525903864617782,0.0360594909048029,0.6791277986843578,0.7223540125224337,0.0025,0.0,0.0,0.0,0.0025,0.0,0.0,0.0,0.0025,-0.03,-0.02,-0.08,0.02,0.0,0.0,0.0,0.02,0.0,0.0,0.0,0.02,0.28728515624999995,-0.22599765624999998,1.019287734375,0.04,0.0,0.0,0.0,0.04,0.0,0.0,0.0,0.04
1614725351.6499524,1142,1614725351,641485929,base_imu_link,-0.12549553769719116,0.035877189561922145,0.6788251125069182,0.7226065069712563,0.0025,0.0,0.0,0.0,0.0025,0.0,0.0,0.0,0.0025,-0.02,0.0,-0.06,0.02,0.0,0.0,0.0,0.02,0.0,0.0,0.0,0.02,0.04405039062499999,-0.29341390624999997,-0.48800171875,0.04,0.0,0.0,0.0,0.04,0.0,0.0,0.0,0.04
1614725351.6721842,1143,1614725351,663763999,base_imu_link,-0.1257432622810939,0.03554994946072397,0.6786537517610293,0.7227405608549495,0.0025,0.0,0.0,0.0,0.0025,0.0,0.0,0.0,0.0025,-0.02,-0.02,-0.08,0.02,0.0,0.0,0.0,0.02,0.0,0.0,0.0,0.02,0.35585054687499995,-0.248214375,0.5404791406249999,0.04,0.0,0.0,0.0,0.04,0.0,0.0,0.0,0.04
1614725351.6925154,1144,1614725351,684402942,base_imu_link,-0.12589845804154542,0.03549314728595041,0.6779689733732487,0.7233587532488441,0.0025,0.0,0.0,0.0,0.0025,0.0,0.0,0.0,0.0025,-0.0,0.0,-0.09,0.02,0.0,0.0,0.0,0.02,0.0,0.0,0.0,0.02,0.094612578125,-0.17620156249999996,0.522858984375,0.04,0.0,0.0,0.0,0.04,0.0,0.0,0.0,0.04
1614725351.71638,1145,1614725351,704108953,base_imu_link,-0.126058108636179,0.03552686883309738,0.677467818425364,0.7237986942762216,0.0025,0.0,0.0,0.0,0.0025,0.0,0.0,0.0,0.0025,-0.0,0.01,-0.06,0.02,0.0,0.0,0.0,0.02,0.0,0.0,0.0,0.02,0.04405039062499999,-0.338230390625,1.2855053125,0.04,0.0,0.0,0.0,0.04,0.0,0.0,0.0,0.04
1614725351.7324026,1146,1614725351,724081039,base_imu_link,-0.12576904859036298,0.03599630998046158,0.6768180998977871,0.7244333452673302,0.0025,0.0,0.0,0.0,0.0025,0.0,0.0,0.0,0.0025,0.05,-0.0,-0.04,0.02,0.0,0.0,0.0,0.02,0.0,0.0,0.0,0.02,0.19535390624999996,-0.42824640624999993,1.56896,0.04,0.0,0.0,0.0,0.04,0.0,0.0,0.0,0.04
1614725351.7534416,1147,1614725351,744256019,base_imu_link,-0.12572391697565902,0.036363390411964104,0.6761116254482221,0.7250822508321437,0.0025,0.0,0.0,0.0,0.0025,0.0,0.0,0.0,0.0025,0.04,0.01,-0.06,0.02,0.0,0.0,0.0,0.02,0.0,0.0,0.0,0.02,0.15858140624999997,-0.34742351562499996,-0.7894596093749999,0.04,0.0,0.0,0.0,0.04,0.0,0.0,0.0,0.04
1614725351.7725892,1148,1614725351,764141082,base_imu_link,-0.12574257012772566,0.03677270318434777,0.6755288546604078,0.7256013649927813,0.0025,0.0,0.0,0.0,0.0025,0.0,0.0,0.0,0.0025,0.03,0.03,-0.07,0.02,0.0,0.0,0.0,0.02,0.0,0.0,0.0,0.02,-0.015704921874999996,-0.302223984375,0.16815757812499998,0.04,0.0,0.0,0.0,0.04,0.0,0.0,0.0,0.04
1614725351.7932632,1149,1614725351,784563064,base_imu_link,-0.1258175414665594,0.03714512112182747,0.6748220533581271,0.7262268120481895,0.0025,0.0,0.0,0.0,0.0025,0.0,0.0,0.0,0.0025,0.03,0.02,-0.06,0.02,0.0,0.0,0.0,0.02,0.0,0.0,0.0,0.02,0.04405039062499999,-0.08197203125,1.6222035156249999,0.04,0.0,0.0,0.0,0.04,0.0,0.0,0.0,0.04
1614725351.812474,1150,1614725351,804332971,base_imu_link,-0.12586569591590643,0.03724235360605191,0.6746296502485062,0.7263922278597592,0.0025,0.0,0.0,0.0,0.0025,0.0,0.0,0.0,0.0025,0.02,0.01,-0.06,0.02,0.0,0.0,0.0,0.02,0.0,0.0,0.0,0.02,-0.20799445312499998,-0.158198359375,2.0301484375,0.04,0.0,0.0,0.0,0.04,0.0,0.0,0.0,0.04
1614725351.8329904,1151,1614725351,824476957,base_imu_link,-0.12591192963608178,0.03713723490355935,0.6741945359748442,0.726793464074011,0.0025,0.0,0.0,0.0,0.0025,0.0,0.0,0.0,0.0025,0.0,-0.01,-0.08,0.02,0.0,0.0,0.0,0.02,0.0,0.0,0.0,0.02,0.09920914062499998,-0.1853946875,-1.1797843749999999,0.04,0.0,0.0,0.0,0.04,0.0,0.0,0.0,0.04
1614725351.8528864,1152,1614725351,844415903,base_imu_link,-0.12639201363019575,0.036968037956684296,0.6738923294742565,0.7269990036691232,0.0025,0.0,0.0,0.0,0.0025,0.0,0.0,0.0,0.0025,-0.04,0.02,-0.07,0.02,0.0,0.0,0.0,0.02,0.0,0.0,0.0,0.02,-0.0934634375,-0.28881734374999996,-1.285888359375,0.04,0.0,0.0,0.0,0.04,0.0,0.0,0.0,0.04
1614725351.8737335,1153,1614725351,864579916,base_imu_link,-0.1266858395012196,0.03706560182710538,0.6737652804089495,0.7270606481900361,0.0025,0.0,0.0,0.0,0.0025,0.0,0.0,0.0,0.0025,-0.01,0.02,-0.03,0.02,0.0,0.0,0.0,0.02,0.0,0.0,0.0,0.02,-0.26774976562499997,-0.338230390625,1.249881953125,0.04,0.0,0.0,0.0,0.04,0.0,0.0,0.0,0.04
1614725351.892678,1154,1614725351,884334087,base_imu_link,-0.12678116467836253,0.037159689760857775,0.6732585754064259,0.727508477188675,0.0025,0.0,0.0,0.0,0.0025,0.0,0.0,0.0,0.0025,0.0,0.0,-0.02,0.02,0.0,0.0,0.0,0.02,0.0,0.0,0.0,0.02,-0.1670084375,-0.21680453125,0.8595571875,0.04,0.0,0.0,0.0,0.04,0.0,0.0,0.0,0.04
1614725351.912656,1155,1614725351,904341936,base_imu_link,-0.1268277826425795,0.03705525809940592,0.6728227073796194,0.7279088032380926,0.0025,0.0,0.0,0.0,0.0025,0.0,0.0,0.0,0.0025,-0.01,-0.01,-0.04,0.02,0.0,0.0,0.0,0.02,0.0,0.0,0.0,0.02,0.067033203125,-0.14479171875,1.036907890625,0.04,0.0,0.0,0.0,0.04,0.0,0.0,0.0,0.04
1614725351.9448023,1156,1614725351,924119949,base_imu_link,-0.1268492512930574,0.03714047288070708,0.671999731926363,0.7286605609002622,0.0025,0.0,0.0,0.0,0.0025,0.0,0.0,0.0,0.0025,0.01,-0.0,-0.06,0.02,0.0,0.0,0.0,0.02,0.0,0.0,0.0,0.02,-0.033708125,-0.032175937499999994,1.21425859375,0.04,0.0,0.0,0.0,0.04,0.0,0.0,0.0,0.04
1614725351.9535632,1157,1614725351,944350957,base_imu_link,-0.1269561994729839,0.036887684798765294,0.6713808015710769,0.7292250965287337,0.0025,0.0,0.0,0.0,0.0025,0.0,0.0,0.0,0.0025,-0.02,-0.02,-0.06,0.02,0.0,0.0,0.0,0.02,0.0,0.0,0.0,0.02,-0.253960078125,-0.10418875,1.09015140625,0.04,0.0,0.0,0.0,0.04,0.0,0.0,0.0,0.04
1614725351.9735096,1158,1614725351,964797973,base_imu_link,-0.1267610438675389,0.03677144584980592,0.6709415182555003,0.7296690877437052,0.0025,0.0,0.0,0.0,0.0025,0.0,0.0,0.0,0.0025,0.01,-0.03,-0.04,0.02,0.0,0.0,0.0,0.02,0.0,0.0,0.0,0.02,-0.0383046875,-0.40602968749999996,-0.08005679687499999,0.04,0.0,0.0,0.0,0.04,0.0,0.0,0.0,0.04
1614725351.9929385,1159,1614725351,984590053,base_imu_link,-0.12667569721878663,0.037210484037855936,0.6708585948061558,0.7297378936210678,0.0025,0.0,0.0,0.0,0.0025,0.0,0.0,0.0,0.0025,0.05,0.01,-0.01,0.02,0.0,0.0,0.0,0.02,0.0,0.0,0.0,0.02,-0.20339789062499997,-0.4734459374999999,0.22140109375,0.04,0.0,0.0,0.0,0.04,0.0,0.0,0.0,0.04
1614725352.0127075,1160,1614725352,4486083,base_imu_link,-0.12658299800568207,0.03746950093108644,0.6704040437828543,0.7301583384413721,0.0025,0.0,0.0,0.0,0.0025,0.0,0.0,0.0,0.0025,0.03,0.0,-0.04,0.02,0.0,0.0,0.0,0.02,0.0,0.0,0.0,0.02,-0.0934634375,-0.29801046875,1.5337196874999999,0.04,0.0,0.0,0.0,0.04,0.0,0.0,0.0,0.04
1614725352.033201,1161,1614725352,24554967,base_imu_link,-0.1264514825160417,0.03729434673639902,0.6699675200338128,0.7305906352881505,0.0025,0.0,0.0,0.0,0.0025,0.0,0.0,0.0,0.0025,0.01,-0.02,-0.08,0.02,0.0,0.0,0.0,0.02,0.0,0.0,0.0,0.02,-0.052094375,-0.28881734374999996,0.9484240625,0.04,0.0,0.0,0.0,0.04,0.0,0.0,0.0,0.04
1614725352.0539434,1162,1614725352,44907093,base_imu_link,-0.1262846205178496,0.03744245646236855,0.6690732650051567,0.7314309421470119,0.0025,0.0,0.0,0.0,0.0025,0.0,0.0,0.0,0.0025,0.03,-0.01,-0.09,0.02,0.0,0.0,0.0,0.02,0.0,0.0,0.0,0.02,-0.10725312499999999,-0.1853946875,-1.0376739843749998,0.04,0.0,0.0,0.0,0.04,0.0,0.0,0.0,0.04
1614725352.0741448,1163,1614725352,64547061,base_imu_link,-0.1263027530749941,0.037437328627225694,0.6680599664056295,0.7323537002548999,0.0025,0.0,0.0,0.0,0.0025,0.0,0.0,0.0,0.0025,0.0,-0.01,-0.09,0.02,0.0,0.0,0.0,0.02,0.0,0.0,0.0,0.02,-0.1670084375,-0.158198359375,0.6469661718749999,0.04,0.0,0.0,0.0,0.04,0.0,0.0,0.0,0.04
1614725352.0943093,1164,1614725352,84798097,base_imu_link,-0.1261297143802714,0.03740476070831463,0.6667901321773242,0.7335414771215407,0.0025,0.0,0.0,0.0,0.0025,0.0,0.0,0.0,0.0025,0.02,-0.02,-0.09,0.02,0.0,0.0,0.0,0.02,0.0,0.0,0.0,0.02,0.039453828125,-0.14938828124999998,1.5869632031249998,0.04,0.0,0.0,0.0,0.04,0.0,0.0,0.0,0.04
1614725352.112955,1165,1614725352,104604959,base_imu_link,-0.12633610412952362,0.0375395174872249,0.6660881997802186,0.7341365564619077,0.0025,0.0,0.0,0.0,0.0025,0.0,0.0,0.0,0.0025,0.01,0.01,-0.09,0.02,0.0,0.0,0.0,0.02,0.0,0.0,0.0,0.02,-0.10265656249999999,-0.22599765624999998,0.38074859375,0.04,0.0,0.0,0.0,0.04,0.0,0.0,0.0,0.04
1614725352.1334858,1166,1614725352,124875068,base_imu_link,-0.12634337133150272,0.037870952006029586,0.6652476075411244,0.7348801019047646,0.0025,0.0,0.0,0.0,0.0025,0.0,0.0,0.0,0.0025,0.03,0.02,-0.08,0.02,0.0,0.0,0.0,0.02,0.0,0.0,0.0,0.02,-0.024515,-0.35623359375,-0.3815146875,0.04,0.0,0.0,0.0,0.04,0.0,0.0,0.0,0.04
1614725352.1535883,1167,1614725352,145009994,base_imu_link,-0.12614405474465698,0.03842042366896499,0.6641392805854728,0.7358876031576324,0.0025,0.0,0.0,0.0,0.0025,0.0,0.0,0.0,0.0025,0.05,0.02,-0.08,0.02,0.0,0.0,0.0,0.02,0.0,0.0,0.0,0.02,0.048646953124999996,-0.23940429687499998,0.3631284375,0.04,0.0,0.0,0.0,0.04,0.0,0.0,0.0,0.04
1614725352.1746764,1168,1614725352,164994955,base_imu_link,-0.12615387944730563,0.038639701646416405,0.6632377084039217,0.7366871210413448,0.0025,0.0,0.0,0.0,0.0025,0.0,0.0,0.0,0.0025,0.03,0.01,-0.1,0.02,0.0,0.0,0.0,0.02,0.0,0.0,0.0,0.02,-0.0199184375,-0.08197203125,1.05491109375,0.04,0.0,0.0,0.0,0.04,0.0,0.0,0.0,0.04
1614725352.1936553,1169,1614725352,185234069,base_imu_link,-0.12630558550250537,0.03869937409091184,0.6625993239653226,0.7372322520051184,0.0025,0.0,0.0,0.0,0.0025,0.0,0.0,0.0,0.0025,0.0,0.01,-0.08,0.02,0.0,0.0,0.0,0.02,0.0,0.0,0.0,0.02,-0.18079812499999998,-0.095378671875,0.30988492187499994,0.04,0.0,0.0,0.0,0.04,0.0,0.0,0.0,0.04
1614725352.213407,1170,1614725352,205096960,base_imu_link,-0.12641066183293787,0.0386609551913658,0.6621556085063106,0.7376148217344114,0.0025,0.0,0.0,0.0,0.0025,0.0,0.0,0.0,0.0025,-0.0,-0.01,-0.05,0.02,0.0,0.0,0.0,0.02,0.0,0.0,0.0,0.02,0.103805703125,-0.15398484374999996,0.34550828124999994,0.04,0.0,0.0,0.0,0.04,0.0,0.0,0.0,0.04
1614725352.2347229,1171,1614725352,225285053,base_imu_link,-0.12643357424264395,0.03883658111255098,0.6615096850913034,0.7381810128973263,0.0025,0.0,0.0,0.0,0.0025,0.0,0.0,0.0,0.0025,0.01,0.01,-0.07,0.02,0.0,0.0,0.0,0.02,0.0,0.0,0.0,0.02,0.090016015625,-0.171988046875,0.026430234374999997,0.04,0.0,0.0,0.0,0.04,0.0,0.0,0.0,0.04
1614725352.2537131,1172,1614725352,245358943,base_imu_link,-0.12660086469521628,0.03865083587899434,0.6608807518641997,0.7387252302173579,0.0025,0.0,0.0,0.0,0.0025,0.0,0.0,0.0,0.0025,-0.01,-0.01,-0.09,0.02,0.0,0.0,0.0,0.02,0.0,0.0,0.0,0.02,-0.07967375,-0.131385078125,1.30312546875,0.04,0.0,0.0,0.0,0.04,0.0,0.0,0.0,0.04
1614725352.2744067,1173,1614725352,265965938,base_imu_link,-0.126662097851083,0.03831244495676523,0.6603840679095163,0.739176401395957,0.0025,0.0,0.0,0.0,0.0025,0.0,0.0,0.0,0.0025,-0.01,-0.03,-0.08,0.02,0.0,0.0,0.0,0.02,0.0,0.0,0.0,0.02,-0.0019152343749999998,-0.12219195312499999,2.04776859375,0.04,0.0,0.0,0.0,0.04,0.0,0.0,0.0,0.04
1614725352.2946963,1174,1614725352,285588026,base_imu_link,-0.12677376788488973,0.03806173285803763,0.65975585950194,0.7397309795601154,0.0025,0.0,0.0,0.0,0.0025,0.0,0.0,0.0,0.0025,-0.02,-0.02,-0.07,0.02,0.0,0.0,0.0,0.02,0.0,0.0,0.0,0.02,0.039453828125,-0.045965624999999996,0.433992109375,0.04,0.0,0.0,0.0,0.04,0.0,0.0,0.0,0.04
1614725352.3154097,1175,1614725352,305876970,base_imu_link,-0.12701017655920263,0.03761749394530845,0.6588802243397883,0.7404932067032249,0.0025,0.0,0.0,0.0,0.0025,0.0,0.0,0.0,0.0025,-0.04,-0.02,-0.08,0.02,0.0,0.0,0.0,0.02,0.0,0.0,0.0,0.02,0.007277890624999999,-0.21220796874999998,-0.5236250781249999,0.04,0.0,0.0,0.0,0.04,0.0,0.0,0.0,0.04
1614725352.3340302,1176,1614725352,325891971,base_imu_link,-0.1271799086536536,0.0372423873585021,0.6579352436892617,0.7413227977947525,0.0025,0.0,0.0,0.0,0.0025,0.0,0.0,0.0,0.0025,-0.03,-0.02,-0.1,0.02,0.0,0.0,0.0,0.02,0.0,0.0,0.0,0.02,0.103805703125,-0.32482374999999997,0.5580992968749999,0.04,0.0,0.0,0.0,0.04,0.0,0.0,0.0,0.04
1614725352.3536518,1177,1614725352,345546960,base_imu_link,-0.12753579885960825,0.037009198239262554,0.6573075351384297,0.7418299963638372,0.0025,0.0,0.0,0.0,0.0025,0.0,0.0,0.0,0.0025,-0.03,-0.0,-0.09,0.02,0.0,0.0,0.0,0.02,0.0,0.0,0.0,0.02,-0.1578153125,-0.35623359375,1.994525078125,0.04,0.0,0.0,0.0,0.04,0.0,0.0,0.0,0.04
1614725352.3737113,1178,1614725352,365781068,base_imu_link,-0.12751523022852157,0.036986333386617054,0.6567295985267635,0.7423463555654175,0.0025,0.0,0.0,0.0,0.0025,0.0,0.0,0.0,0.0025,0.01,-0.01,-0.06,0.02,0.0,0.0,0.0,0.02,0.0,0.0,0.0,0.02,-0.1394290625,-0.37002328124999995,0.84193703125,0.04,0.0,0.0,0.0,0.04,0.0,0.0,0.0,0.04
1614725352.3942537,1179,1614725352,385900020,base_imu_link,-0.12732829162698403,0.03739067704418035,0.6557458936102665,0.7432272643241802,0.0025,0.0,0.0,0.0,0.0025,0.0,0.0,0.0,0.0025,0.05,-0.0,-0.06,0.02,0.0,0.0,0.0,0.02,0.0,0.0,0.0,0.02,0.05784007812499999,-0.244000859375,-0.48800171875,0.04,0.0,0.0,0.0,0.04,0.0,0.0,0.0,0.04
1614725352.4144163,1180,1614725352,406121015,base_imu_link,-0.1271582285727082,0.03754860076503348,0.6547708249139462,0.7441075556183727,0.0025,0.0,0.0,0.0,0.0025,0.0,0.0,0.0,0.0025,0.03,-0.0,-0.09,0.02,0.0,0.0,0.0,0.02,0.0,0.0,0.0,0.02,0.025664140624999998,-0.25740749999999996,-0.204163984375,0.04,0.0,0.0,0.0,0.04,0.0,0.0,0.0,0.04
1614725352.4345417,1181,1614725352,425762891,base_imu_link,-0.12711644592337693,0.03778254048320623,0.6541162796464596,0.7446783073998591,0.0025,0.0,0.0,0.0,0.0025,0.0,0.0,0.0,0.0025,0.04,0.01,-0.08,0.02,0.0,0.0,0.0,0.02,0.0,0.0,0.0,0.02,-0.04749781249999999,-0.14938828124999998,0.5761025,0.04,0.0,0.0,0.0,0.04,0.0,0.0,0.0,0.04
1614725352.455233,1182,1614725352,445951938,base_imu_link,-0.12703586553265178,0.037984781517068675,0.6539780254016474,0.7448031871126982,0.0025,0.0,0.0,0.0,0.0025,0.0,0.0,0.0,0.0025,0.03,0.01,-0.07,0.02,0.0,0.0,0.0,0.02,0.0,0.0,0.0,0.02,-0.052094375,-0.09997523437499999,1.480476171875,0.04,0.0,0.0,0.0,0.04,0.0,0.0,0.0,0.04
1614725352.4744673,1183,1614725352,465663909,base_imu_link,-0.12693429265924616,0.03816371745959015,0.6532594365422747,0.7454416976432371,0.0025,0.0,0.0,0.0,0.0025,0.0,0.0,0.0,0.0025,0.03,-0.0,-0.09,0.02,0.0,0.0,0.0,0.02,0.0,0.0,0.0,0.02,-0.061287499999999995,0.04405039062499999,0.8775603906249999,0.04,0.0,0.0,0.0,0.04,0.0,0.0,0.0,0.04
1614725352.4948099,1184,1614725352,486478090,base_imu_link,-0.12730996115332963,0.03768682248155907,0.6526384318177598,0.7459456779932683,0.0025,0.0,0.0,0.0,0.0025,0.0,0.0,0.0,0.0025,-0.04,-0.01,-0.1,0.02,0.0,0.0,0.0,0.02,0.0,0.0,0.0,0.02,-0.07507718749999999,-0.06396882812499999,-1.3571350781249998,0.04,0.0,0.0,0.0,0.04,0.0,0.0,0.0,0.04
1614725352.5157864,1185,1614725352,506182909,base_imu_link,-0.1277629230973557,0.037388817057268084,0.6527866791846199,0.7457534869645556,0.0025,0.0,0.0,0.0,0.0025,0.0,0.0,0.0,0.0025,-0.04,0.0,-0.05,0.02,0.0,0.0,0.0,0.02,0.0,0.0,0.0,0.02,-0.21718757812499997,-0.26621757812499997,0.09729390624999999,0.04,0.0,0.0,0.0,0.04,0.0,0.0,0.0,0.04
1614725352.5361052,1186,1614725352,526433944,base_imu_link,-0.1279912403623042,0.03736211803888276,0.6523392419007923,0.7461071156358631,0.0025,0.0,0.0,0.0,0.0025,0.0,0.0,0.0,0.0025,-0.01,0.0,-0.03,0.02,0.0,0.0,0.0,0.02,0.0,0.0,0.0,0.02,-0.07048062499999999,-0.14019515624999998,0.25664140625,0.04,0.0,0.0,0.0,0.04,0.0,0.0,0.0,0.04
1614725352.5561054,1187,1614725352,546467065,base_imu_link,-0.12828801521595412,0.0372676263945348,0.6519599942924158,0.7463923063758774,0.0025,0.0,0.0,0.0,0.0025,0.0,0.0,0.0,0.0025,-0.02,-0.0,-0.03,0.02,0.0,0.0,0.0,0.02,0.0,0.0,0.0,0.02,-0.0566909375,-0.131385078125,0.6822064843749999,0.04,0.0,0.0,0.0,0.04,0.0,0.0,0.0,0.04
1614725352.576912,1188,1614725352,566626071,base_imu_link,-0.12834628725167638,0.03714376959034554,0.6516422677974204,0.7466658728970842,0.0025,0.0,0.0,0.0,0.0025,0.0,0.0,0.0,0.0025,-0.01,-0.02,-0.05,0.02,0.0,0.0,0.0,0.02,0.0,0.0,0.0,0.02,0.08541945312499999,-0.20799445312499998,1.2855053125,0.04,0.0,0.0,0.0,0.04,0.0,0.0,0.0,0.04
1614725352.5966659,1189,1614725352,586462974,base_imu_link,-0.12842083171764482,0.03696393818985351,0.6516502305504825,0.7466550303037863,0.0025,0.0,0.0,0.0,0.0025,0.0,0.0,0.0,0.0025,-0.0,-0.0,-0.06,0.02,0.0,0.0,0.0,0.02,0.0,0.0,0.0,0.02,-0.18960820312499999,-0.23480773437499997,1.21425859375,0.04,0.0,0.0,0.0,0.04,0.0,0.0,0.0,0.04
1614725352.6160724,1190,1614725352,606420040,base_imu_link,-0.12856078860272713,0.0368165473328096,0.6518521176743237,0.7464619763657327,0.0025,0.0,0.0,0.0,0.0025,0.0,0.0,0.0,0.0025,-0.0,-0.01,-0.05,0.02,0.0,0.0,0.0,0.02,0.0,0.0,0.0,0.02,-0.1670084375,-0.18079812499999998,0.664586328125,0.04,0.0,0.0,0.0,0.04,0.0,0.0,0.0,0.04
1614725352.6357253,1191,1614725352,626476049,base_imu_link,-0.1284953753312116,0.03678410486268338,0.6516581454180082,0.7466441787480196,0.0025,0.0,0.0,0.0,0.0025,0.0,0.0,0.0,0.0025,0.02,-0.01,-0.04,0.02,0.0,0.0,0.0,0.02,0.0,0.0,0.0,0.02,0.002681328125,-0.21220796874999998,0.27464460937499996,0.04,0.0,0.0,0.0,0.04,0.0,0.0,0.0,0.04
1614725352.6560197,1192,1614725352,646265029,base_imu_link,-0.12830634780009106,0.03693231418410969,0.6517788029635999,0.7465640476814734,0.0025,0.0,0.0,0.0,0.0025,0.0,0.0,0.0,0.0025,0.03,-0.0,-0.04,0.02,0.0,0.0,0.0,0.02,0.0,0.0,0.0,0.02,-0.0199184375,-0.23940429687499998,0.327888125,0.04,0.0,0.0,0.0,0.04,0.0,0.0,0.0,0.04
1614725352.674494,1193,1614725352,666522026,base_imu_link,-0.12823796890379027,0.0370003834887318,0.6517104240672991,0.7466321169860954,0.0025,0.0,0.0,0.0,0.0025,0.0,0.0,0.0,0.0025,0.02,-0.0,-0.05,0.02,0.0,0.0,0.0,0.02,0.0,0.0,0.0,0.02,-0.1210428125,-0.14019515624999998,0.9484240625,0.04,0.0,0.0,0.0,0.04,0.0,0.0,0.0,0.04
1614725352.6963084,1194,1614725352,686825990,base_imu_link,-0.1284889533367252,0.03680653097604672,0.6515278215007486,0.7467579031777508,0.0025,0.0,0.0,0.0,0.0025,0.0,0.0,0.0,0.0025,-0.02,-0.01,-0.07,0.02,0.0,0.0,0.0,0.02,0.0,0.0,0.0,0.02,-0.07048062499999999,-0.13598164062499998,1.728690546875,0.04,0.0,0.0,0.0,0.04,0.0,0.0,0.0,0.04
1614725352.7145393,1195,1614725352,706532001,base_imu_link,-0.12861928522032223,0.036692817359493174,0.6515342355288974,0.7467354662512098,0.0025,0.0,0.0,0.0,0.0025,0.0,0.0,0.0,0.0025,0.0,-0.0,-0.07,0.02,0.0,0.0,0.0,0.02,0.0,0.0,0.0,0.02,-0.11644624999999999,-0.194204765625,-0.25740749999999996,0.04,0.0,0.0,0.0,0.04,0.0,0.0,0.0,0.04
1614725352.7350125,1196,1614725352,726952075,base_imu_link,-0.128693857469683,0.03651299376051731,0.6515420730207759,0.746724594090758,0.0025,0.0,0.0,0.0,0.0025,0.0,0.0,0.0,0.0025,-0.0,-0.01,-0.07,0.02,0.0,0.0,0.0,0.02,0.0,0.0,0.0,0.02,-0.011108359374999998,-0.29341390624999997,-0.7894596093749999,0.04,0.0,0.0,0.0,0.04,0.0,0.0,0.0,0.04
1614725352.7554965,1197,1614725352,747224092,base_imu_link,-0.12856337419562971,0.03653740144076552,0.651344807960448,0.7469179461322093,0.0025,0.0,0.0,0.0,0.0025,0.0,0.0,0.0,0.0025,0.03,-0.01,-0.06,0.02,0.0,0.0,0.0,0.02,0.0,0.0,0.0,0.02,0.090016015625,-0.42824640624999993,2.101012109375,0.04,0.0,0.0,0.0,0.04,0.0,0.0,0.0,0.04
1614725352.7798512,1198,1614725352,766870975,base_imu_link,-0.12852843232961927,0.0368394130510178,0.6510095447288128,0.7472013600100921,0.0025,0.0,0.0,0.0,0.0025,0.0,0.0,0.0,0.0025,0.03,0.02,-0.07,0.02,0.0,0.0,0.0,0.02,0.0,0.0,0.0,0.02,-0.11184968749999999,-0.21220796874999998,1.267502109375,0.04,0.0,0.0,0.0,0.04,0.0,0.0,0.0,0.04
1614725352.7975209,1199,1614725352,787353038,base_imu_link,-0.1286332575062805,0.036904879210606444,0.6506852252627859,0.7474625425922633,0.0025,0.0,0.0,0.0,0.0025,0.0,0.0,0.0,0.0025,0.01,0.0,-0.07,0.02,0.0,0.0,0.0,0.02,0.0,0.0,0.0,0.02,-0.0019152343749999998,-0.14019515624999998,-0.3995178906249999,0.04,0.0,0.0,0.0,0.04,0.0,0.0,0.0,0.04
1614725352.8158326,1200,1614725352,807409048,base_imu_link,-0.1286793911382631,0.03709400405761417,0.6506790824751292,0.7474505875230708,0.0025,0.0,0.0,0.0,0.0025,0.0,0.0,0.0,0.0025,0.02,0.02,-0.06,0.02,0.0,0.0,0.0,0.02,0.0,0.0,0.0,0.02,0.021067578125,-0.14479171875,-0.43475820312499996,0.04,0.0,0.0,0.0,0.04,0.0,0.0,0.0,0.04
1614725352.8350267,1201,1614725352,827030897,base_imu_link,-0.12870944641149792,0.037428543112613885,0.6505376845068038,0.7475518066337872,0.0025,0.0,0.0,0.0,0.0025,0.0,0.0,0.0,0.0025,0.03,0.02,-0.05,0.02,0.0,0.0,0.0,0.02,0.0,0.0,0.0,0.02,-0.12563937499999997,-0.13598164062499998,0.7178298437499999,0.04,0.0,0.0,0.0,0.04,0.0,0.0,0.0,0.04
1614725352.8558702,1202,1614725352,847352981,base_imu_link,-0.12882362284863208,0.037371215763110366,0.6502179739926413,0.7478131135019266,0.0025,0.0,0.0,0.0,0.0025,0.0,0.0,0.0,0.0025,0.0,0.0,-0.07,0.02,0.0,0.0,0.0,0.02,0.0,0.0,0.0,0.02,0.08541945312499999,0.053243515624999994,1.249881953125,0.04,0.0,0.0,0.0,0.04,0.0,0.0,0.0,0.04
1614725352.8765252,1203,1614725352,867775917,base_imu_link,-0.12908457669036874,0.03705509199534665,0.6500398719976453,0.7479386719719534,0.0025,0.0,0.0,0.0,0.0025,0.0,0.0,0.0,0.0025,-0.02,-0.01,-0.1,0.02,0.0,0.0,0.0,0.02,0.0,0.0,0.0,0.02,0.12219195312499999,0.039453828125,-0.43475820312499996,0.04,0.0,0.0,0.0,0.04,0.0,0.0,0.0,0.04
1614725352.8964148,1204,1614725352,887417078,base_imu_link,-0.1295158186354856,0.03674842639189312,0.6495401234569853,0.748313326020848,0.0025,0.0,0.0,0.0,0.0025,0.0,0.0,0.0,0.0025,-0.04,0.01,-0.09,0.02,0.0,0.0,0.0,0.02,0.0,0.0,0.0,0.02,-0.029111562499999997,-0.18999124999999997,-0.08005679687499999,0.04,0.0,0.0,0.0,0.04,0.0,0.0,0.0,0.04
1614725352.9160485,1205,1614725352,907438039,base_imu_link,-0.12968916249795498,0.03674659110538697,0.6492839111181311,0.7485057193741776,0.0025,0.0,0.0,0.0,0.0025,0.0,0.0,0.0,0.0025,-0.0,0.0,-0.04,0.02,0.0,0.0,0.0,0.02,0.0,0.0,0.0,0.02,-0.0842703125,-0.244000859375,1.498096328125,0.04,0.0,0.0,0.0,0.04,0.0,0.0,0.0,0.04
1614725352.9370503,1206,1614725352,927333116,base_imu_link,-0.12963682649693653,0.03666899979302903,0.6493506030671407,0.7484607350865659,0.0025,0.0,0.0,0.0,0.0025,0.0,0.0,0.0,0.0025,0.0,-0.02,-0.04,0.02,0.0,0.0,0.0,0.02,0.0,0.0,0.0,0.02,0.12219195312499999,-0.03677249999999999,1.76431390625,0.04,0.0,0.0,0.0,0.04,0.0,0.0,0.0,0.04
1614725352.955402,1207,1614725352,947243928,base_imu_link,-0.12990151270137798,0.03634206177647906,0.6492372491467978,0.7485291215871479,0.0025,0.0,0.0,0.0,0.0025,0.0,0.0,0.0,0.0025,-0.03,-0.01,-0.05,0.02,0.0,0.0,0.0,0.02,0.0,0.0,0.0,0.02,-0.11644624999999999,0.012640546875,-0.22216718749999997,0.04,0.0,0.0,0.0,0.04,0.0,0.0,0.0,0.04
1614725352.9753854,1208,1614725352,967732906,base_imu_link,-0.1300982331150462,0.035994328920673675,0.6488636495597205,0.7488356443879618,0.0025,0.0,0.0,0.0,0.0025,0.0,0.0,0.0,0.0025,-0.04,-0.02,-0.03,0.02,0.0,0.0,0.0,0.02,0.0,0.0,0.0,0.02,-0.029111562499999997,-0.126788515625,-0.275410703125,0.04,0.0,0.0,0.0,0.04,0.0,0.0,0.0,0.04
1614725352.995906,1209,1614725352,987982988,base_imu_link,-0.13037258740654906,0.03563351306652836,0.6489458953625173,0.7487339087363414,0.0025,0.0,0.0,0.0,0.0025,0.0,0.0,0.0,0.0025,-0.03,-0.01,-0.04,0.02,0.0,0.0,0.0,0.02,0.0,0.0,0.0,0.02,0.11759539062499999,-0.050179140625,0.824316875,0.04,0.0,0.0,0.0,0.04,0.0,0.0,0.0,0.04
1614725353.0163515,1210,1614725353,7853031,base_imu_link,-0.1307141563784233,0.03538204981776959,0.6494795728230974,0.7482233652850575,0.0025,0.0,0.0,0.0,0.0025,0.0,0.0,0.0,0.0025,-0.03,0.0,-0.03,0.02,0.0,0.0,0.0,0.02,0.0,0.0,0.0,0.02,-0.15321875,-0.15398484374999996,1.76431390625,0.04,0.0,0.0,0.0,0.04,0.0,0.0,0.0,0.04
1614725353.035715,1211,1614725353,27723073,base_imu_link,-0.13077278091334643,0.03543690968726682,0.6495436128541866,0.7481549306155357,0.0025,0.0,0.0,0.0,0.0025,0.0,0.0,0.0,0.0025,0.0,-0.0,0.0,0.02,0.0,0.0,0.0,0.02,0.0,0.0,0.0,0.02,-0.052094375,-0.35623359375,0.8775603906249999,0.04,0.0,0.0,0.0,0.04,0.0,0.0,0.0,0.04
1614725353.0562727,1212,1614725353,48041105,base_imu_link,-0.13079091729253883,0.03545714751227532,0.6501266537379584,0.7476442073229441,0.0025,0.0,0.0,0.0,0.0025,0.0,0.0,0.0,0.0025,0.01,-0.01,0.0,0.02,0.0,0.0,0.0,0.02,0.0,0.0,0.0,0.02,-0.1348325,-0.34282695312499994,-0.8603232812499999,0.04,0.0,0.0,0.0,0.04,0.0,0.0,0.0,0.04
1614725353.0762835,1213,1614725353,68213939,base_imu_link,-0.13078406148795266,0.035657410036675365,0.6503788101081289,0.7474165383054661,0.0025,0.0,0.0,0.0,0.0025,0.0,0.0,0.0,0.0025,0.01,0.01,0.01,0.02,0.0,0.0,0.0,0.02,0.0,0.0,0.0,0.02,-0.061287499999999995,-0.158198359375,-0.1333003125,0.04,0.0,0.0,0.0,0.04,0.0,0.0,0.0,0.04
1614725353.097454,1214,1614725353,88047981,base_imu_link,-0.13072155455534015,0.035880235076349014,0.6508232635110613,0.7470298277701585,0.0025,0.0,0.0,0.0,0.0025,0.0,0.0,0.0,0.0025,0.03,0.0,0.02,0.02,0.0,0.0,0.0,0.02,0.0,0.0,0.0,0.02,-0.11184968749999999,-0.21680453125,1.6045833593749999,0.04,0.0,0.0,0.0,0.04,0.0,0.0,0.0,0.04
1614725353.116717,1215,1614725353,108089923,base_imu_link,-0.1304417102911719,0.03635333396541903,0.6508016388066695,0.7470747099537408,0.0025,0.0,0.0,0.0,0.0025,0.0,0.0,0.0,0.0025,0.04,-0.0,0.04,0.02,0.0,0.0,0.0,0.02,0.0,0.0,0.0,0.02,0.007277890624999999,-0.18079812499999998,1.3563689843749998,0.04,0.0,0.0,0.0,0.04,0.0,0.0,0.0,0.04
1614725353.1364892,1216,1614725353,128362894,base_imu_link,-0.1304912059675514,0.03670866882888446,0.65124270586775,0.7466642196141425,0.0025,0.0,0.0,0.0,0.0025,0.0,0.0,0.0,0.0025,0.03,0.02,0.01,0.02,0.0,0.0,0.0,0.02,0.0,0.0,0.0,0.02,0.067033203125,0.039453828125,-0.204163984375,0.04,0.0,0.0,0.0,0.04,0.0,0.0,0.0,0.04
1614725353.1563559,1217,1614725353,148394107,base_imu_link,-0.1308536274609424,0.036647861116474216,0.6510571885330114,0.7467655587367372,0.0025,0.0,0.0,0.0,0.0025,0.0,0.0,0.0,0.0025,-0.03,0.01,-0.03,0.02,0.0,0.0,0.0,0.02,0.0,0.0,0.0,0.02,-0.1394290625,-0.00536265625,-0.15092046874999998,0.04,0.0,0.0,0.0,0.04,0.0,0.0,0.0,0.04
1614725353.176161,1218,1614725353,167949914,base_imu_link,-0.13117632523994655,0.036463848899187704,0.6511988698650958,0.7465943954426815,0.0025,0.0,0.0,0.0,0.0025,0.0,0.0,0.0,0.0025,-0.03,-0.01,-0.01,0.02,0.0,0.0,0.0,0.02,0.0,0.0,0.0,0.02,-0.1853946875,-0.131385078125,0.38074859375,0.04,0.0,0.0,0.0,0.04,0.0,0.0,0.0,0.04
1614725353.1968126,1219,1614725353,188366889,base_imu_link,-0.13136230629062523,0.03641632882243536,0.6512038418725252,0.7465596773276518,0.0025,0.0,0.0,0.0,0.0025,0.0,0.0,0.0,0.0025,-0.02,-0.0,0.01,0.02,0.0,0.0,0.0,0.02,0.0,0.0,0.0,0.02,-0.23097726562499998,-0.113381875,-0.23978734374999996,0.04,0.0,0.0,0.0,0.04,0.0,0.0,0.0,0.04
1614725353.2175972,1220,1614725353,208661079,base_imu_link,-0.13174383270133264,0.03637527467486279,0.6516000007003062,0.7461486721993494,0.0025,0.0,0.0,0.0,0.0025,0.0,0.0,0.0,0.0025,-0.04,0.0,0.06,0.02,0.0,0.0,0.0,0.02,0.0,0.0,0.0,0.02,-0.17620156249999996,-0.244000859375,0.9128007031249998,0.04,0.0,0.0,0.0,0.04,0.0,0.0,0.0,0.04
1614725353.2375302,1221,1614725353,228473901,base_imu_link,-0.13165670137793561,0.03668956268230015,0.6515225167063832,0.7462163219851489,0.0025,0.0,0.0,0.0,0.0025,0.0,0.0,0.0,0.0025,0.01,-0.01,0.07,0.02,0.0,0.0,0.0,0.02,0.0,0.0,0.0,0.02,0.05784007812499999,-0.378833359375,1.994525078125,0.04,0.0,0.0,0.0,0.04,0.0,0.0,0.0,0.04
1614725353.2577848,1222,1614725353,248841047,base_imu_link,-0.13159531705539793,0.036911968783558895,0.6519657378239899,0.7458289722136244,0.0025,0.0,0.0,0.0,0.0025,0.0,0.0,0.0,0.0025,0.01,0.0,0.06,0.02,0.0,0.0,0.0,0.02,0.0,0.0,0.0,0.02,0.039453828125,-0.23480773437499997,0.9660442187499999,0.04,0.0,0.0,0.0,0.04,0.0,0.0,0.0,0.04
1614725353.2777607,1223,1614725353,268846988,base_imu_link,-0.13175195979070514,0.03688318103929435,0.6528735158990313,0.7450082041731946,0.0025,0.0,0.0,0.0,0.0025,0.0,0.0,0.0,0.0025,-0.01,-0.01,0.05,0.02,0.0,0.0,0.0,0.02,0.0,0.0,0.0,0.02,-0.006511796875,-0.23021117187499998,0.93080390625,0.04,0.0,0.0,0.0,0.04,0.0,0.0,0.0,0.04
1614725353.2969537,1224,1614725353,288727045,base_imu_link,-0.13176856989523567,0.03691417838483307,0.6533887674303712,0.7445518826903585,0.0025,0.0,0.0,0.0,0.0025,0.0,0.0,0.0,0.0025,-0.0,-0.01,0.05,0.02,0.0,0.0,0.0,0.02,0.0,0.0,0.0,0.02,-0.052094375,-0.248214375,1.3916092968749998,0.04,0.0,0.0,0.0,0.04,0.0,0.0,0.0,0.04
1614725353.3178895,1225,1614725353,309066057,base_imu_link,-0.13162108435486528,0.03736271083247405,0.6535629186199834,0.7444027333355431,0.0025,0.0,0.0,0.0,0.0025,0.0,0.0,0.0,0.0025,0.04,0.0,0.04,0.02,0.0,0.0,0.0,0.02,0.0,0.0,0.0,0.02,-0.0842703125,-0.14938828124999998,-0.417138046875,0.04,0.0,0.0,0.0,0.04,0.0,0.0,0.0,0.04
1614725353.3536186,1226,1614725353,329067945,base_imu_link,-0.13150749937614778,0.0374194011033211,0.6538811424032172,0.7441404555850764,0.0025,0.0,0.0,0.0,0.0025,0.0,0.0,0.0,0.0025,0.02,-0.01,0.01,0.02,0.0,0.0,0.0,0.02,0.0,0.0,0.0,0.02,0.08541945312499999,-0.13598164062499998,-0.417138046875,0.04,0.0,0.0,0.0,0.04,0.0,0.0,0.0,0.04
1614725353.3584552,1227,1614725353,349247932,base_imu_link,-0.13159564100686194,0.037543118609779436,0.6532332390175266,0.7446874760298552,0.0025,0.0,0.0,0.0,0.0025,0.0,0.0,0.0,0.0025,0.0,0.0,-0.02,0.02,0.0,0.0,0.0,0.02,0.0,0.0,0.0,0.02,0.09920914062499998,-0.06396882812499999,1.6754470312499998,0.04,0.0,0.0,0.0,0.04,0.0,0.0,0.0,0.04
1614725353.3790894,1228,1614725353,369146108,base_imu_link,-0.1317683706468667,0.03754108061057984,0.6529782730970936,0.7448806203861109,0.0025,0.0,0.0,0.0,0.0025,0.0,0.0,0.0,0.0025,-0.0,0.0,-0.04,0.02,0.0,0.0,0.0,0.02,0.0,0.0,0.0,0.02,-0.07967375,-0.08618554687499999,0.5580992968749999,0.04,0.0,0.0,0.0,0.04,0.0,0.0,0.0,0.04
1614725353.3978004,1229,1614725353,389009952,base_imu_link,-0.13176774131488225,0.0374526005786023,0.6527880409128162,0.7450519033596797,0.0025,0.0,0.0,0.0,0.0025,0.0,0.0,0.0,0.0025,0.01,-0.01,-0.05,0.02,0.0,0.0,0.0,0.02,0.0,0.0,0.0,0.02,0.07622632812499999,-0.194204765625,-0.6829725781249999,0.04,0.0,0.0,0.0,0.04,0.0,0.0,0.0,0.04
1614725353.4182553,1230,1614725353,408931016,base_imu_link,-0.13172569685750646,0.03769054289532602,0.6521328128256726,0.7456209212460015,0.0025,0.0,0.0,0.0,0.0025,0.0,0.0,0.0,0.0025,0.02,-0.0,-0.06,0.02,0.0,0.0,0.0,0.02,0.0,0.0,0.0,0.02,0.011874453124999998,-0.23940429687499998,0.84193703125,0.04,0.0,0.0,0.0,0.04,0.0,0.0,0.0,0.04
1614725353.4397295,1231,1614725353,428932905,base_imu_link,-0.13169935179607617,0.03778249558768537,0.6516121123452515,0.7460760140954936,0.0025,0.0,0.0,0.0,0.0025,0.0,0.0,0.0,0.0025,0.02,0.01,-0.07,0.02,0.0,0.0,0.0,0.02,0.0,0.0,0.0,0.02,-0.029111562499999997,-0.18999124999999997,1.6930671875,0.04,0.0,0.0,0.0,0.04,0.0,0.0,0.0,0.04
1614725353.4575613,1232,1614725353,449188947,base_imu_link,-0.13167671576365272,0.037951421919647045,0.6513468227509716,0.7463030541222444,0.0025,0.0,0.0,0.0,0.0025,0.0,0.0,0.0,0.0025,0.03,0.0,-0.07,0.02,0.0,0.0,0.0,0.02,0.0,0.0,0.0,0.02,0.09920914062499998,-0.20799445312499998,0.84193703125,0.04,0.0,0.0,0.0,0.04,0.0,0.0,0.0,0.04
1614725353.4780533,1233,1614725353,469387054,base_imu_link,-0.13159216146245103,0.03816567018540158,0.6511432490403198,0.7464846642029261,0.0025,0.0,0.0,0.0,0.0025,0.0,0.0,0.0,0.0025,0.04,0.01,-0.08,0.02,0.0,0.0,0.0,0.02,0.0,0.0,0.0,0.02,0.17237109374999998,-0.171988046875,-1.0200538281249998,0.04,0.0,0.0,0.0,0.04,0.0,0.0,0.0,0.04
1614725353.4972005,1234,1614725353,488898038,base_imu_link,-0.13167053668889234,0.038501320691712894,0.6506791706396328,0.7468581759402333,0.0025,0.0,0.0,0.0,0.0025,0.0,0.0,0.0,0.0025,0.03,0.03,-0.09,0.02,0.0,0.0,0.0,0.02,0.0,0.0,0.0,0.02,-0.061287499999999995,-0.18079812499999998,0.061670546874999996,0.04,0.0,0.0,0.0,0.04,0.0,0.0,0.0,0.04
1614725353.5185905,1235,1614725353,509249925,base_imu_link,-0.1316537247850087,0.03855876913466314,0.6503532303545185,0.7471420171831428,0.0025,0.0,0.0,0.0,0.0025,0.0,0.0,0.0,0.0025,0.02,0.01,-0.09,0.02,0.0,0.0,0.0,0.02,0.0,0.0,0.0,0.02,-0.033708125,-0.07277890625,1.05491109375,0.04,0.0,0.0,0.0,0.04,0.0,0.0,0.0,0.04
1614725353.5389197,1236,1614725353,529084920,base_imu_link,-0.13168153771613644,0.03853998114620704,0.6494481991481281,0.7479249154167931,0.0025,0.0,0.0,0.0,0.0025,0.0,0.0,0.0,0.0025,0.02,-0.0,-0.1,0.02,0.0,0.0,0.0,0.02,0.0,0.0,0.0,0.02,-0.011108359374999998,-0.09997523437499999,1.515716484375,0.04,0.0,0.0,0.0,0.04,0.0,0.0,0.0,0.04
1614725353.5566928,1237,1614725353,547256946,base_imu_link,-0.13190911985624498,0.038428405655481,0.6488087178943703,0.7484453816557306,0.0025,0.0,0.0,0.0,0.0025,0.0,0.0,0.0,0.0025,-0.01,0.0,-0.13,0.02,0.0,0.0,0.0,0.02,0.0,0.0,0.0,0.02,0.039453828125,-0.014172734375,-0.8250829687499999,0.04,0.0,0.0,0.0,0.04,0.0,0.0,0.0,0.04
1614725353.5785327,1238,1614725353,569545984,base_imu_link,-0.13223884494075488,0.03795715637776762,0.6485083250239876,0.7486715531813872,0.0025,0.0,0.0,0.0,0.0025,0.0,0.0,0.0,0.0025,-0.03,-0.01,-0.12,0.02,0.0,0.0,0.0,0.02,0.0,0.0,0.0,0.02,-0.029111562499999997,-0.162794921875,0.9840474218749999,0.04,0.0,0.0,0.0,0.04,0.0,0.0,0.0,0.04
1614725353.598119,1239,1614725353,589463949,base_imu_link,-0.13231742804908336,0.037677808915379876,0.6483903606899362,0.7487739452693224,0.0025,0.0,0.0,0.0,0.0025,0.0,0.0,0.0,0.0025,-0.01,-0.02,-0.08,0.02,0.0,0.0,0.0,0.02,0.0,0.0,0.0,0.02,-0.10725312499999999,-0.20799445312499998,2.75717140625,0.04,0.0,0.0,0.0,0.04,0.0,0.0,0.0,0.04
1614725353.6178164,1240,1614725353,609507083,base_imu_link,-0.1323730516211003,0.03756761734509125,0.6480061639115006,0.7491021698434944,0.0025,0.0,0.0,0.0,0.0025,0.0,0.0,0.0,0.0025,-0.01,-0.01,-0.06,0.02,0.0,0.0,0.0,0.02,0.0,0.0,0.0,0.02,-0.024515,-0.171988046875,0.7354499999999999,0.04,0.0,0.0,0.0,0.04,0.0,0.0,0.0,0.04
1614725353.638489,1241,1614725353,629774093,base_imu_link,-0.13257003208687615,0.03713333471143261,0.647441207555826,0.749577337440472,0.0025,0.0,0.0,0.0,0.0025,0.0,0.0,0.0,0.0025,-0.03,-0.03,-0.09,0.02,0.0,0.0,0.0,0.02,0.0,0.0,0.0,0.02,0.08541945312499999,0.0260471875,-0.47038156249999996,0.04,0.0,0.0,0.0,0.04,0.0,0.0,0.0,0.04
1614725353.6579018,1242,1614725353,649513006,base_imu_link,-0.13304230135235504,0.0364271254812565,0.6471500070727947,0.7497797536115015,0.0025,0.0,0.0,0.0,0.0025,0.0,0.0,0.0,0.0025,-0.06,-0.02,-0.11,0.02,0.0,0.0,0.0,0.02,0.0,0.0,0.0,0.02,-0.006511796875,-0.045965624999999996,0.6113428125,0.04,0.0,0.0,0.0,0.04,0.0,0.0,0.0,0.04
1614725353.677904,1243,1614725353,669876098,base_imu_link,-0.13350343474802062,0.036020147030790026,0.6472375594500964,0.7496418635291415,0.0025,0.0,0.0,0.0,0.0025,0.0,0.0,0.0,0.0025,-0.04,-0.0,-0.08,0.02,0.0,0.0,0.0,0.02,0.0,0.0,0.0,0.02,-0.30911882812499997,-0.41483976562499997,2.2431224999999997,0.04,0.0,0.0,0.0,0.04,0.0,0.0,0.0,0.04
1614725353.6982026,1244,1614725353,689799070,base_imu_link,-0.13345829212387839,0.03583078959093429,0.6472430629767165,0.7496542244322951,0.0025,0.0,0.0,0.0,0.0025,0.0,0.0,0.0,0.0025,0.01,-0.01,-0.06,0.02,0.0,0.0,0.0,0.02,0.0,0.0,0.0,0.02,-0.061287499999999995,-0.43284296875,0.753453203125,0.04,0.0,0.0,0.0,0.04,0.0,0.0,0.0,0.04
1614725353.7184138,1245,1614725353,710047006,base_imu_link,-0.1335766534241981,0.03576445304674644,0.6469875967891334,0.7498568071033832,0.0025,0.0,0.0,0.0,0.0025,0.0,0.0,0.0,0.0025,0.0,-0.0,-0.08,0.02,0.0,0.0,0.0,0.02,0.0,0.0,0.0,0.02,0.094612578125,-0.28422078125,-0.7185959375,0.04,0.0,0.0,0.0,0.04,0.0,0.0,0.0,0.04
1614725353.7378664,1246,1614725353,729691028,base_imu_link,-0.13373468546975315,0.03582303529957233,0.6464035696577274,0.7503293737939222,0.0025,0.0,0.0,0.0,0.0025,0.0,0.0,0.0,0.0025,0.01,0.01,-0.09,0.02,0.0,0.0,0.0,0.02,0.0,0.0,0.0,0.02,-0.13023593749999998,-0.23021117187499998,0.38074859375,0.04,0.0,0.0,0.0,0.04,0.0,0.0,0.0,0.04
1614725353.7582374,1247,1614725353,750170946,base_imu_link,-0.13359659472167873,0.036047103984500985,0.6464584828347394,0.7502959323787576,0.0025,0.0,0.0,0.0,0.0025,0.0,0.0,0.0,0.0025,0.05,0.01,-0.07,0.02,0.0,0.0,0.0,0.02,0.0,0.0,0.0,0.02,0.011874453124999998,-0.194204765625,0.8775603906249999,0.04,0.0,0.0,0.0,0.04,0.0,0.0,0.0,0.04
1614725353.7781408,1248,1614725353,770107030,base_imu_link,-0.1333676729974777,0.03642072954535129,0.645986195684147,0.7507252688195231,0.0025,0.0,0.0,0.0,0.0025,0.0,0.0,0.0,0.0025,0.05,0.01,-0.09,0.02,0.0,0.0,0.0,0.02,0.0,0.0,0.0,0.02,-0.015704921874999996,-0.23940429687499998,1.1790182812499999,0.04,0.0,0.0,0.0,0.04,0.0,0.0,0.0,0.04
1614725353.7990048,1249,1614725353,790533065,base_imu_link,-0.13338456120511993,0.03662695774211789,0.6451985054134591,0.7513893221299549,0.0025,0.0,0.0,0.0,0.0025,0.0,0.0,0.0,0.0025,0.04,0.02,-0.13,0.02,0.0,0.0,0.0,0.02,0.0,0.0,0.0,0.02,-0.04749781249999999,-0.059372265625,-0.9668103124999998,0.04,0.0,0.0,0.0,0.04,0.0,0.0,0.0,0.04
1614725353.8179588,1250,1614725353,810128927,base_imu_link,-0.1339378377989857,0.03642443883617235,0.6448905979579436,0.7515650554187898,0.0025,0.0,0.0,0.0,0.0025,0.0,0.0,0.0,0.0025,-0.03,0.02,-0.11,0.02,0.0,0.0,0.0,0.02,0.0,0.0,0.0,0.02,-0.12563937499999997,-0.126788515625,0.292264765625,0.04,0.0,0.0,0.0,0.04,0.0,0.0,0.0,0.04
1614725353.838348,1251,1614725353,830250978,base_imu_link,-0.1341737895505765,0.03638076354678001,0.6445710089211337,0.7517992077009542,0.0025,0.0,0.0,0.0,0.0025,0.0,0.0,0.0,0.0025,-0.01,0.01,-0.07,0.02,0.0,0.0,0.0,0.02,0.0,0.0,0.0,0.02,-0.1210428125,0.017237109375,0.7354499999999999,0.04,0.0,0.0,0.0,0.04,0.0,0.0,0.0,0.04
1614725353.8591588,1252,1614725353,850435018,base_imu_link,-0.13478226982251001,0.03624572679631844,0.6442617871799541,0.7519619249737253,0.0025,0.0,0.0,0.0,0.0025,0.0,0.0,0.0,0.0025,-0.04,0.02,-0.06,0.02,0.0,0.0,0.0,0.02,0.0,0.0,0.0,0.02,-0.24017039062499995,-0.018769296874999997,0.18577773437499998,0.04,0.0,0.0,0.0,0.04,0.0,0.0,0.0,0.04
1614725353.879788,1253,1614725353,870636940,base_imu_link,-0.13515590813444767,0.03606665425341647,0.6440796051849145,0.7520595316410543,0.0025,0.0,0.0,0.0,0.0025,0.0,0.0,0.0,0.0025,-0.03,0.01,-0.06,0.02,0.0,0.0,0.0,0.02,0.0,0.0,0.0,0.02,-0.15321875,-0.10418875,1.249881953125,0.04,0.0,0.0,0.0,0.04,0.0,0.0,0.0,0.04
1614725353.9339802,1254,1614725353,891040086,base_imu_link,-0.13527282746113242,0.03573412873819203,0.6449397014193691,0.7513169209641748,0.0025,0.0,0.0,0.0,0.0025,0.0,0.0,0.0,0.0025,-0.0,-0.01,-0.07,0.02,0.0,0.0,0.0,0.02,0.0,0.0,0.0,0.02,0.12219195312499999,-0.00995921875,0.664586328125,0.04,0.0,0.0,0.0,0.04,0.0,0.0,0.0,0.04
1614725353.9339974,1255,1614725353,910517930,base_imu_link,-0.1355394251099548,0.0354097628709836,0.6448251350091166,0.7513825644734897,0.0025,0.0,0.0,0.0,0.0025,0.0,0.0,0.0,0.0025,-0.02,-0.01,-0.06,0.02,0.0,0.0,0.0,0.02,0.0,0.0,0.0,0.02,-0.1578153125,-0.194204765625,0.7178298437499999,0.04,0.0,0.0,0.0,0.04,0.0,0.0,0.0,0.04
1614725353.939205,1256,1614725353,930656909,base_imu_link,-0.13556665324062203,0.035140316284182925,0.6449644628226043,0.7512707117920503,0.0025,0.0,0.0,0.0,0.0025,0.0,0.0,0.0,0.0025,-0.0,-0.02,-0.07,0.02,0.0,0.0,0.0,0.02,0.0,0.0,0.0,0.02,0.002681328125,-0.35202007812499997,0.7886935156249999,0.04,0.0,0.0,0.0,0.04,0.0,0.0,0.0,0.04
1614725353.9588237,1257,1614725353,950771093,base_imu_link,-0.1355816112016194,0.034918187469656345,0.6448414422446973,0.7513839639302834,0.0025,0.0,0.0,0.0,0.0025,0.0,0.0,0.0,0.0025,-0.0,-0.01,-0.09,0.02,0.0,0.0,0.0,0.02,0.0,0.0,0.0,0.02,0.108402265625,-0.29801046875,0.4163719531249999,0.04,0.0,0.0,0.0,0.04,0.0,0.0,0.0,0.04
1614725353.9800391,1258,1614725353,970459938,base_imu_link,-0.13576168328403665,0.03489595856567693,0.6447154044425714,0.7514606341666336,0.0025,0.0,0.0,0.0,0.0025,0.0,0.0,0.0,0.0025,0.01,0.01,-0.08,0.02,0.0,0.0,0.0,0.02,0.0,0.0,0.0,0.02,-0.18960820312499999,-0.29801046875,0.13253421875,0.04,0.0,0.0,0.0,0.04,0.0,0.0,0.0,0.04
1614725354.0001884,1259,1614725353,990701913,base_imu_link,-0.1356121776048164,0.035079493274594954,0.6443157395033428,0.7518217835798175,0.0025,0.0,0.0,0.0,0.0025,0.0,0.0,0.0,0.0025,0.03,0.01,-0.08,0.02,0.0,0.0,0.0,0.02,0.0,0.0,0.0,0.02,-0.0566909375,-0.162794921875,-0.204163984375,0.04,0.0,0.0,0.0,0.04,0.0,0.0,0.0,0.04
1614725354.0190191,1260,1614725354,10780096,base_imu_link,-0.1356975506328977,0.03486485341833363,0.6445196226492326,0.751641585310739,0.0025,0.0,0.0,0.0,0.0025,0.0,0.0,0.0,0.0025,0.01,-0.01,-0.11,0.02,0.0,0.0,0.0,0.02,0.0,0.0,0.0,0.02,-0.0383046875,-0.023365859375,1.07253125,0.04,0.0,0.0,0.0,0.04,0.0,0.0,0.0,0.04
1614725354.041823,1261,1614725354,31061887,base_imu_link,-0.13601644458313955,0.0346192355785439,0.6443379880843464,0.7517510175864983,0.0025,0.0,0.0,0.0,0.0025,0.0,0.0,0.0,0.0025,-0.02,0.01,-0.13,0.02,0.0,0.0,0.0,0.02,0.0,0.0,0.0,0.02,-0.0566909375,-0.050179140625,0.45199531249999997,0.04,0.0,0.0,0.0,0.04,0.0,0.0,0.0,0.04
1614725354.0606172,1262,1614725354,50913095,base_imu_link,-0.13619861963680252,0.034347408708113196,0.6435672908748095,0.7523904130437374,0.0025,0.0,0.0,0.0,0.0025,0.0,0.0,0.0,0.0025,-0.02,-0.01,-0.11,0.02,0.0,0.0,0.0,0.02,0.0,0.0,0.0,0.02,-0.144025625,-0.23480773437499997,-0.009193124999999998,0.04,0.0,0.0,0.0,0.04,0.0,0.0,0.0,0.04
1614725354.080766,1263,1614725354,68721055,base_imu_link,-0.13637468615414475,0.03426223495275766,0.643116553550198,0.7527477285134215,0.0025,0.0,0.0,0.0,0.0025,0.0,0.0,0.0,0.0025,-0.0,0.01,-0.08,0.02,0.0,0.0,0.0,0.02,0.0,0.0,0.0,0.02,0.07622632812499999,-0.39224,0.9128007031249998,0.04,0.0,0.0,0.0,0.04,0.0,0.0,0.0,0.04
1614725354.0992444,1264,1614725354,90941905,base_imu_link,-0.13614988525651203,0.03470011292841333,0.6429683576902735,0.7528949474637656,0.0025,0.0,0.0,0.0,0.0025,0.0,0.0,0.0,0.0025,0.06,0.02,-0.08,0.02,0.0,0.0,0.0,0.02,0.0,0.0,0.0,0.02,-0.11644624999999999,-0.35623359375,1.76431390625,0.04,0.0,0.0,0.0,0.04,0.0,0.0,0.0,0.04
1614725354.119522,1265,1614725354,111366033,base_imu_link,-0.13617012163471306,0.03482227927722948,0.6419853111973562,0.7537240655881697,0.0025,0.0,0.0,0.0,0.0025,0.0,0.0,0.0,0.0025,0.02,0.0,-0.11,0.02,0.0,0.0,0.0,0.02,0.0,0.0,0.0,0.02,0.05784007812499999,-0.07277890625,-0.47038156249999996,0.04,0.0,0.0,0.0,0.04,0.0,0.0,0.0,0.04
1614725354.1392293,1266,1614725354,131184101,base_imu_link,-0.1363644167956431,0.03466610689662305,0.6419286314839674,0.753744412215266,0.0025,0.0,0.0,0.0,0.0025,0.0,0.0,0.0,0.0025,0.0,0.01,-0.11,0.02,0.0,0.0,0.0,0.02,0.0,0.0,0.0,0.02,-0.11184968749999999,-0.16739148437499998,0.6293460156249999,0.04,0.0,0.0,0.0,0.04,0.0,0.0,0.0,0.04
1614725354.1587913,1267,1614725354,150845050,base_imu_link,-0.13630095958707591,0.034872691526842435,0.6424438388846344,0.7533072797208918,0.0025,0.0,0.0,0.0,0.0025,0.0,0.0,0.0,0.0025,0.04,0.01,-0.08,0.02,0.0,0.0,0.0,0.02,0.0,0.0,0.0,0.02,-0.1210428125,-0.162794921875,0.00842703125,0.04,0.0,0.0,0.0,0.04,0.0,0.0,0.0,0.04
1614725354.180802,1268,1614725354,170922040,base_imu_link,-0.1363325628556617,0.03510994549105896,0.6421759970766845,0.7535188868312381,0.0025,0.0,0.0,0.0,0.0025,0.0,0.0,0.0,0.0025,0.04,0.02,-0.09,0.02,0.0,0.0,0.0,0.02,0.0,0.0,0.0,0.02,-0.006511796875,-0.014172734375,0.23902125,0.04,0.0,0.0,0.0,0.04,0.0,0.0,0.0,0.04
1614725354.201468,1269,1614725354,191421031,base_imu_link,-0.13652256567917792,0.03489045061557931,0.6417944812032739,0.7538196663746819,0.0025,0.0,0.0,0.0,0.0025,0.0,0.0,0.0,0.0025,-0.0,0.01,-0.12,0.02,0.0,0.0,0.0,0.02,0.0,0.0,0.0,0.02,0.131385078125,0.07124671875,0.04405039062499999,0.04,0.0,0.0,0.0,0.04,0.0,0.0,0.0,0.04
1614725354.2201786,1270,1614725354,211565971,base_imu_link,-0.13684542581064846,0.03463429619254347,0.641678078222719,0.7538720308449885,0.0025,0.0,0.0,0.0,0.0025,0.0,0.0,0.0,0.0025,-0.02,0.01,-0.11,0.02,0.0,0.0,0.0,0.02,0.0,0.0,0.0,0.02,-0.1578153125,-0.10418875,1.001667578125,0.04,0.0,0.0,0.0,0.04,0.0,0.0,0.0,0.04
1614725354.2392254,1271,1614725354,231184005,base_imu_link,-0.13684542581064846,0.03463429619254347,0.641678078222719,0.7538720308449885,0.0025,0.0,0.0,0.0,0.0025,0.0,0.0,0.0,0.0025,0.02,-0.01,-0.07,0.02,0.0,0.0,0.0,0.02,0.0,0.0,0.0,0.02,-0.052094375,-0.18999124999999997,0.664586328125,0.04,0.0,0.0,0.0,0.04,0.0,0.0,0.0,0.04
1614725354.2724526,1272,1614725354,251271963,base_imu_link,-0.13682781803129507,0.03426202821750512,0.6420154549149506,0.753604947758152,0.0025,0.0,0.0,0.0,0.0025,0.0,0.0,0.0,0.0025,0.0,-0.02,-0.07,0.02,0.0,0.0,0.0,0.02,0.0,0.0,0.0,0.02,-0.011108359374999998,-0.18079812499999998,0.7886935156249999,0.04,0.0,0.0,0.0,0.04,0.0,0.0,0.0,0.04
1614725354.2799296,1273,1614725354,271610021,base_imu_link,-0.13688375535404593,0.034166763854241014,0.6415617646203025,0.7539853923950953,0.0025,0.0,0.0,0.0,0.0025,0.0,0.0,0.0,0.0025,-0.0,-0.01,-0.07,0.02,0.0,0.0,0.0,0.02,0.0,0.0,0.0,0.02,-0.052094375,-0.018769296874999997,0.7710733593749999,0.04,0.0,0.0,0.0,0.04,0.0,0.0,0.0,0.04
1614725354.2996151,1274,1614725354,291424036,base_imu_link,-0.13703753724726636,0.03380907648669604,0.6415751823662457,0.7539621642390549,0.0025,0.0,0.0,0.0,0.0025,0.0,0.0,0.0,0.0025,-0.01,-0.02,-0.07,0.02,0.0,0.0,0.0,0.02,0.0,0.0,0.0,0.02,-0.0842703125,0.035240312499999996,0.505238828125,0.04,0.0,0.0,0.0,0.04,0.0,0.0,0.0,0.04
1614725354.319534,1275,1614725354,311650991,base_imu_link,-0.13722844497943248,0.033590110051071986,0.6411928364227735,0.7542624244355555,0.0025,0.0,0.0,0.0,0.0025,0.0,0.0,0.0,0.0025,-0.02,-0.01,-0.06,0.02,0.0,0.0,0.0,0.02,0.0,0.0,0.0,0.02,-0.1210428125,-0.126788515625,1.7819340625,0.04,0.0,0.0,0.0,0.04,0.0,0.0,0.0,0.04
1614725354.3398833,1276,1614725354,331707954,base_imu_link,-0.1372860439933939,0.03364502798283634,0.6412579266459519,0.7541941565209938,0.0025,0.0,0.0,0.0,0.0025,0.0,0.0,0.0,0.0025,0.01,0.0,-0.03,0.02,0.0,0.0,0.0,0.02,0.0,0.0,0.0,0.02,-0.18079812499999998,-0.37002328124999995,1.3383657812499998,0.04,0.0,0.0,0.0,0.04,0.0,0.0,0.0,0.04
1614725354.3599262,1277,1614725354,351691961,base_imu_link,-0.13742773937554317,0.03364690857795313,0.6419801089048994,0.7535536090841367,0.0025,0.0,0.0,0.0,0.0025,0.0,0.0,0.0,0.0025,0.01,0.01,-0.03,0.02,0.0,0.0,0.0,0.02,0.0,0.0,0.0,0.02,-0.14862218749999997,-0.306820546875,-0.328271171875,0.04,0.0,0.0,0.0,0.04,0.0,0.0,0.0,0.04
1614725354.381195,1278,1614725354,371928930,base_imu_link,-0.13749716598160813,0.03365375755186383,0.6423080865605387,0.7532610941025734,0.0025,0.0,0.0,0.0,0.0025,0.0,0.0,0.0,0.0025,0.01,0.0,-0.03,0.02,0.0,0.0,0.0,0.02,0.0,0.0,0.0,0.02,-0.029111562499999997,-0.08197203125,-0.009193124999999998,0.04,0.0,0.0,0.0,0.04,0.0,0.0,0.0,0.04
1614725354.4004865,1279,1614725354,392080068,base_imu_link,-0.137625243223079,0.03379016885116657,0.6429598952326814,0.7526752885801269,0.0025,0.0,0.0,0.0,0.0025,0.0,0.0,0.0,0.0025,0.02,0.02,-0.01,0.02,0.0,0.0,0.0,0.02,0.0,0.0,0.0,0.02,-0.194204765625,-0.07277890625,0.753453203125,0.04,0.0,0.0,0.0,0.04,0.0,0.0,0.0,0.04
1614725354.4202983,1280,1614725354,412005901,base_imu_link,-0.1373079538591067,0.034184667575329016,0.6436597302059939,0.7521170693588445,0.0025,0.0,0.0,0.0,0.0025,0.0,0.0,0.0,0.0025,0.06,0.01,0.01,0.02,0.0,0.0,0.0,0.02,0.0,0.0,0.0,0.02,-0.12563937499999997,-0.275410703125,0.84193703125,0.04,0.0,0.0,0.0,0.04,0.0,0.0,0.0,0.04
1614725354.4401777,1281,1614725354,432105064,base_imu_link,-0.13701315491949406,0.03477798939779679,0.643636012166524,0.7521639254011239,0.0025,0.0,0.0,0.0,0.0025,0.0,0.0,0.0,0.0025,0.07,0.02,-0.02,0.02,0.0,0.0,0.0,0.02,0.0,0.0,0.0,0.02,0.18156421875,-0.059372265625,0.30988492187499994,0.04,0.0,0.0,0.0,0.04,0.0,0.0,0.0,0.04
1614725354.461615,1282,1614725354,452370882,base_imu_link,-0.13723881312847713,0.03502088535704381,0.6437635815507972,0.7520023250155453,0.0025,0.0,0.0,0.0,0.0025,0.0,0.0,0.0,0.0025,0.01,0.03,-0.03,0.02,0.0,0.0,0.0,0.02,0.0,0.0,0.0,0.02,-0.144025625,0.1700728125,-0.3995178906249999,0.04,0.0,0.0,0.0,0.04,0.0,0.0,0.0,0.04
1614725354.480088,1283,1614725354,472106933,base_imu_link,-0.13764758882543698,0.03523002206006632,0.6438306238685042,0.7518604355897996,0.0025,0.0,0.0,0.0,0.0025,0.0,0.0,0.0,0.0025,-0.0,0.03,-0.02,0.02,0.0,0.0,0.0,0.02,0.0,0.0,0.0,0.02,-0.21259101562499996,0.08465335937499999,0.93080390625,0.04,0.0,0.0,0.0,0.04,0.0,0.0,0.0,0.04
1614725354.500087,1284,1614725354,491991996,base_imu_link,-0.13782141233629286,0.03523245875982178,0.6435733484377073,0.7520487200521282,0.0025,0.0,0.0,0.0,0.0025,0.0,0.0,0.0,0.0025,-0.01,-0.0,-0.02,0.02,0.0,0.0,0.0,0.02,0.0,0.0,0.0,0.02,-0.1670084375,0.04405039062499999,-0.009193124999999998,0.04,0.0,0.0,0.0,0.04,0.0,0.0,0.0,0.04
1614725354.5209162,1285,1614725354,512326002,base_imu_link,-0.13807780634231537,0.035031906796623484,0.6434543490167569,0.7521128809117075,0.0025,0.0,0.0,0.0,0.0025,0.0,0.0,0.0,0.0025,-0.03,-0.01,-0.02,0.02,0.0,0.0,0.0,0.02,0.0,0.0,0.0,0.02,-0.11644624999999999,-0.08618554687499999,0.824316875,0.04,0.0,0.0,0.0,0.04,0.0,0.0,0.0,0.04
1614725354.5403638,1286,1614725354,532332897,base_imu_link,-0.1381312227895818,0.03502397370397303,0.6431948317656287,0.7523253916668127,0.0025,0.0,0.0,0.0,0.0025,0.0,0.0,0.0,0.0025,-0.0,-0.0,-0.03,0.02,0.0,0.0,0.0,0.02,0.0,0.0,0.0,0.02,-0.18960820312499999,-0.198801328125,0.93080390625,0.04,0.0,0.0,0.0,0.04,0.0,0.0,0.0,0.04
1614725354.5607967,1287,1614725354,552098989,base_imu_link,-0.13791020700603365,0.03484376595524413,0.6433914224129834,0.752206198022196,0.0025,0.0,0.0,0.0,0.0025,0.0,0.0,0.0,0.0025,0.01,-0.03,-0.02,0.02,0.0,0.0,0.0,0.02,0.0,0.0,0.0,0.02,-0.07048062499999999,-0.10878531249999998,1.07253125,0.04,0.0,0.0,0.0,0.04,0.0,0.0,0.0,0.04
1614725354.5810046,1288,1614725354,572374105,base_imu_link,-0.1379287744845767,0.034610047309701936,0.6433336080399801,0.7522630301700758,0.0025,0.0,0.0,0.0,0.0025,0.0,0.0,0.0,0.0025,-0.01,-0.03,-0.03,0.02,0.0,0.0,0.0,0.02,0.0,0.0,0.0,0.02,-0.06588406249999999,-0.113381875,0.84193703125,0.04,0.0,0.0,0.0,0.04,0.0,0.0,0.0,0.04
1614725354.6007679,1289,1614725354,592755079,base_imu_link,-0.13795160881147245,0.034439017467533785,0.6436000413500546,0.7520387586264456,0.0025,0.0,0.0,0.0,0.0025,0.0,0.0,0.0,0.0025,-0.0,-0.02,-0.02,0.02,0.0,0.0,0.0,0.02,0.0,0.0,0.0,0.02,-0.253960078125,-0.198801328125,1.232261796875,0.04,0.0,0.0,0.0,0.04,0.0,0.0,0.0,0.04
1614725354.6209636,1290,1614725354,612679004,base_imu_link,-0.1379761154768253,0.03418121186707008,0.643673368729821,0.7519832649076893,0.0025,0.0,0.0,0.0,0.0025,0.0,0.0,0.0,0.0025,-0.01,-0.02,-0.03,0.02,0.0,0.0,0.0,0.02,0.0,0.0,0.0,0.02,-0.0199184375,-0.05477570312499999,1.019287734375,0.04,0.0,0.0,0.0,0.04,0.0,0.0,0.0,0.04
1614725354.641027,1291,1614725354,632858037,base_imu_link,-0.13808390988990973,0.033794926031465444,0.6441431773430648,0.7515785413956575,0.0025,0.0,0.0,0.0,0.0025,0.0,0.0,0.0,0.0025,-0.02,-0.03,-0.04,0.02,0.0,0.0,0.0,0.02,0.0,0.0,0.0,0.02,-0.11644624999999999,-0.126788515625,-0.5944887499999999,0.04,0.0,0.0,0.0,0.04,0.0,0.0,0.0,0.04
1614725354.6609943,1292,1614725354,652776956,base_imu_link,-0.138076936399046,0.03374433490476068,0.643753328732376,0.7519160400220722,0.0025,0.0,0.0,0.0,0.0025,0.0,0.0,0.0,0.0025,0.0,-0.01,-0.04,0.02,0.0,0.0,0.0,0.02,0.0,0.0,0.0,0.02,0.08082289062499999,-0.28881734374999996,-0.6121089062499999,0.04,0.0,0.0,0.0,0.04,0.0,0.0,0.0,0.04
1614725354.6810596,1293,1614725354,672776937,base_imu_link,-0.1379564406091736,0.03373380348479116,0.6437511947031256,0.7519404566288449,0.0025,0.0,0.0,0.0,0.0025,0.0,0.0,0.0,0.0025,0.03,-0.01,-0.06,0.02,0.0,0.0,0.0,0.02,0.0,0.0,0.0,0.02,0.016471015624999998,-0.095378671875,1.8171743749999998,0.04,0.0,0.0,0.0,0.04,0.0,0.0,0.0,0.04
1614725354.70172,1294,1614725354,693099975,base_imu_link,-0.13823560331604257,0.03373264451377806,0.6429087461862756,0.7526097067850959,0.0025,0.0,0.0,0.0,0.0025,0.0,0.0,0.0,0.0025,-0.02,0.0,-0.08,0.02,0.0,0.0,0.0,0.02,0.0,0.0,0.0,0.02,0.053243515624999994,-0.113381875,2.207499140625,0.04,0.0,0.0,0.0,0.04,0.0,0.0,0.0,0.04
1614725354.7216825,1295,1614725354,713727951,base_imu_link,-0.13848074138641475,0.03358073792150457,0.6425263535883111,0.75289793680832,0.0025,0.0,0.0,0.0,0.0025,0.0,0.0,0.0,0.0025,-0.01,0.0,-0.09,0.02,0.0,0.0,0.0,0.02,0.0,0.0,0.0,0.02,-0.18960820312499999,-0.311417109375,0.7002096875,0.04,0.0,0.0,0.0,0.04,0.0,0.0,0.0,0.04
1614725354.741085,1296,1614725354,732913017,base_imu_link,-0.13844255614291484,0.03373781769616589,0.6416718046877273,0.7536263751850193,0.0025,0.0,0.0,0.0,0.0025,0.0,0.0,0.0,0.0025,0.02,0.0,-0.08,0.02,0.0,0.0,0.0,0.02,0.0,0.0,0.0,0.02,0.11299882812499999,-0.36542671874999993,0.292264765625,0.04,0.0,0.0,0.0,0.04,0.0,0.0,0.0,0.04
1614725354.7611,1297,1614725354,752971887,base_imu_link,-0.13836274527524023,0.03392874709184743,0.6415993882770319,0.7536941128887866,0.0025,0.0,0.0,0.0,0.0025,0.0,0.0,0.0,0.0025,0.04,0.01,-0.07,0.02,0.0,0.0,0.0,0.02,0.0,0.0,0.0,0.02,-0.09806,-0.09997523437499999,1.56896,0.04,0.0,0.0,0.0,0.04,0.0,0.0,0.0,0.04
1614725354.7823803,1298,1614725354,773068904,base_imu_link,-0.1384160158264212,0.03384653980872744,0.6410797100699165,0.7541301105528063,0.0025,0.0,0.0,0.0,0.0025,0.0,0.0,0.0,0.0025,-0.0,-0.01,-0.07,0.02,0.0,0.0,0.0,0.02,0.0,0.0,0.0,0.02,-0.13023593749999998,0.06205359375,0.9660442187499999,0.04,0.0,0.0,0.0,0.04,0.0,0.0,0.0,0.04
1614725354.8013334,1299,1614725354,792774915,base_imu_link,-0.1385087980421596,0.03381731745451162,0.6399698095456656,0.7550565176032729,0.0025,0.0,0.0,0.0,0.0025,0.0,0.0,0.0,0.0025,-0.01,-0.01,-0.06,0.02,0.0,0.0,0.0,0.02,0.0,0.0,0.0,0.02,-0.11644624999999999,0.0260471875,0.00842703125,0.04,0.0,0.0,0.0,0.04,0.0,0.0,0.0,0.04
1614725354.8215287,1300,1614725354,813334941,base_imu_link,-0.1386170134080229,0.03380240229802135,0.6394484341123751,0.7554789350497829,0.0025,0.0,0.0,0.0,0.0025,0.0,0.0,0.0,0.0025,-0.0,-0.01,-0.04,0.02,0.0,0.0,0.0,0.02,0.0,0.0,0.0,0.02,-0.16241187499999998,-0.126788515625,-0.807079765625,0.04,0.0,0.0,0.0,0.04,0.0,0.0,0.0,0.04
1614725354.84189,1301,1614725354,833586931,base_imu_link,-0.13877087495501966,0.03389104829790734,0.6387282027876557,0.7560557678327298,0.0025,0.0,0.0,0.0,0.0025,0.0,0.0,0.0,0.0025,0.0,0.01,-0.06,0.02,0.0,0.0,0.0,0.02,0.0,0.0,0.0,0.02,0.06243664062499999,-0.17620156249999996,1.1790182812499999,0.04,0.0,0.0,0.0,0.04,0.0,0.0,0.0,0.04
1614725354.862517,1302,1614725354,853418111,base_imu_link,-0.13878640467669895,0.03396688732331988,0.6373481439149412,0.7572132644708887,0.0025,0.0,0.0,0.0,0.0025,0.0,0.0,0.0,0.0025,-0.0,-0.0,-0.09,0.02,0.0,0.0,0.0,0.02,0.0,0.0,0.0,0.02,0.094612578125,0.017237109375,1.2855053125,0.04,0.0,0.0,0.0,0.04,0.0,0.0,0.0,0.04
1614725354.8820138,1303,1614725354,873255014,base_imu_link,-0.1389464961055572,0.033809122161195804,0.6359753764229239,0.7583443380565309,0.0025,0.0,0.0,0.0,0.0025,0.0,0.0,0.0,0.0025,-0.02,-0.01,-0.08,0.02,0.0,0.0,0.0,0.02,0.0,0.0,0.0,0.02,-0.07048062499999999,0.06665015625,0.46961546874999993,0.04,0.0,0.0,0.0,0.04,0.0,0.0,0.0,0.04
1614725354.9014425,1304,1614725354,893553018,base_imu_link,-0.1390641332254261,0.033758804390594976,0.6356503274583423,0.7585975027499634,0.0025,0.0,0.0,0.0,0.0025,0.0,0.0,0.0,0.0025,-0.01,-0.01,-0.05,0.02,0.0,0.0,0.0,0.02,0.0,0.0,0.0,0.02,-0.1670084375,-0.10418875,-0.6297290625,0.04,0.0,0.0,0.0,0.04,0.0,0.0,0.0,0.04
1614725354.9218922,1305,1614725354,913813114,base_imu_link,-0.13918809652088593,0.03361012033232839,0.635196145095702,0.758961718964599,0.0025,0.0,0.0,0.0,0.0025,0.0,0.0,0.0,0.0025,-0.01,-0.01,-0.05,0.02,0.0,0.0,0.0,0.02,0.0,0.0,0.0,0.02,0.06243664062499999,-0.14479171875,1.143394921875,0.04,0.0,0.0,0.0,0.04,0.0,0.0,0.0,0.04
1614725354.9419882,1306,1614725354,933885097,base_imu_link,-0.13926698346154612,0.0333577705322221,0.6349409074560723,0.7591719242052491,0.0025,0.0,0.0,0.0,0.0025,0.0,0.0,0.0,0.0025,-0.01,-0.02,-0.06,0.02,0.0,0.0,0.0,0.02,0.0,0.0,0.0,0.02,0.048646953124999996,0.07546023437499999,1.2855053125,0.04,0.0,0.0,0.0,0.04,0.0,0.0,0.0,0.04
1614725354.9629126,1307,1614725354,953541040,base_imu_link,-0.13961112865345024,0.03288392711376967,0.6346969843985416,0.7593333379281351,0.0025,0.0,0.0,0.0,0.0025,0.0,0.0,0.0,0.0025,-0.04,-0.02,-0.07,0.02,0.0,0.0,0.0,0.02,0.0,0.0,0.0,0.02,-0.10725312499999999,0.030643749999999997,0.45199531249999997,0.04,0.0,0.0,0.0,0.04,0.0,0.0,0.0,0.04
1614725354.9822254,1308,1614725354,974222898,base_imu_link,-0.13981361043424406,0.0326316042442817,0.6345100024743443,0.7594632245881254,0.0025,0.0,0.0,0.0,0.0025,0.0,0.0,0.0,0.0025,-0.03,-0.02,-0.03,0.02,0.0,0.0,0.0,0.02,0.0,0.0,0.0,0.02,-0.0019152343749999998,-0.20339789062499997,1.462856015625,0.04,0.0,0.0,0.0,0.04,0.0,0.0,0.0,0.04
1614725355.002628,1309,1614725354,994112968,base_imu_link,-0.14002473095727097,0.032851717924320276,0.6341139957495051,0.759745536179293,0.0025,0.0,0.0,0.0,0.0025,0.0,0.0,0.0,0.0025,0.0,0.01,-0.0,0.02,0.0,0.0,0.0,0.02,0.0,0.0,0.0,0.02,-0.0566909375,-0.29801046875,0.8066967187499999,0.04,0.0,0.0,0.0,0.04,0.0,0.0,0.0,0.04
1614725355.0236948,1310,1614725355,14528036,base_imu_link,-0.14021619435452534,0.032857799730062275,0.6345137982390329,0.7593760752630471,0.0025,0.0,0.0,0.0,0.0025,0.0,0.0,0.0,0.0025,-0.0,0.01,-0.0,0.02,0.0,0.0,0.0,0.02,0.0,0.0,0.0,0.02,-0.006511796875,-0.25740749999999996,-0.026813281249999998,0.04,0.0,0.0,0.0,0.04,0.0,0.0,0.0,0.04
1614725355.0423741,1311,1614725355,34113883,base_imu_link,-0.1403040205711938,0.0330782865449819,0.6340490290195525,0.7597384007473684,0.0025,0.0,0.0,0.0,0.0025,0.0,0.0,0.0,0.0025,-0.0,0.01,-0.01,0.02,0.0,0.0,0.0,0.02,0.0,0.0,0.0,0.02,-0.07967375,-0.10878531249999998,0.38074859375,0.04,0.0,0.0,0.0,0.04,0.0,0.0,0.0,0.04
1614725355.0626595,1312,1614725355,54456949,base_imu_link,-0.14037820237148813,0.033059960052866065,0.6345126063375319,0.7593383644588261,0.0025,0.0,0.0,0.0,0.0025,0.0,0.0,0.0,0.0025,0.0,0.0,0.01,0.02,0.0,0.0,0.0,0.02,0.0,0.0,0.0,0.02,-0.221784140625,-0.05477570312499999,1.21425859375,0.04,0.0,0.0,0.0,0.04,0.0,0.0,0.0,0.04
1614725355.08304,1313,1614725355,74491024,base_imu_link,-0.14011543316893815,0.033343067622513156,0.6348289691101846,0.7591100613270132,0.0025,0.0,0.0,0.0,0.0025,0.0,0.0,0.0,0.0025,0.04,-0.01,0.02,0.02,0.0,0.0,0.0,0.02,0.0,0.0,0.0,0.02,0.021067578125,-0.050179140625,0.39875179687499995,0.04,0.0,0.0,0.0,0.04,0.0,0.0,0.0,0.04
1614725355.1029792,1314,1614725355,94062089,base_imu_link,-0.13999885914508564,0.03368007316150082,0.633961076678858,0.7598416449274765,0.0025,0.0,0.0,0.0,0.0025,0.0,0.0,0.0,0.0025,0.02,-0.0,-0.01,0.02,0.0,0.0,0.0,0.02,0.0,0.0,0.0,0.02,-0.033708125,0.048646953124999996,-0.452378359375,0.04,0.0,0.0,0.0,0.04,0.0,0.0,0.0,0.04
1614725355.1202285,1315,1614725355,111876010,base_imu_link,-0.14038050933687113,0.03399229922907093,0.6335004850053422,0.7601414155862305,0.0025,0.0,0.0,0.0,0.0025,0.0,0.0,0.0,0.0025,-0.02,0.03,0.01,0.02,0.0,0.0,0.0,0.02,0.0,0.0,0.0,0.02,-0.13023593749999998,-0.059372265625,0.7002096875,0.04,0.0,0.0,0.0,0.04,0.0,0.0,0.0,0.04
1614725355.1439764,1316,1614725355,134646892,base_imu_link,-0.1405384013119808,0.03435429339682861,0.6339563691897523,0.7597157772783343,0.0025,0.0,0.0,0.0,0.0025,0.0,0.0,0.0,0.0025,0.01,0.03,0.04,0.02,0.0,0.0,0.0,0.02,0.0,0.0,0.0,0.02,-0.194204765625,-0.15398484374999996,1.1790182812499999,0.04,0.0,0.0,0.0,0.04,0.0,0.0,0.0,0.04
1614725355.164067,1317,1614725355,154787063,base_imu_link,-0.1404496885892847,0.03493092186803727,0.632818037524492,0.7606543545239669,0.0025,0.0,0.0,0.0,0.0025,0.0,0.0,0.0,0.0025,0.02,0.01,0.02,0.02,0.0,0.0,0.0,0.02,0.0,0.0,0.0,0.02,-0.0566909375,-0.050179140625,1.09015140625,0.04,0.0,0.0,0.0,0.04,0.0,0.0,0.0,0.04
1614725355.1830063,1318,1614725355,174534082,base_imu_link,-0.1405638140395827,0.03496773116263383,0.6326878140688679,0.7607399042305727,0.0025,0.0,0.0,0.0,0.0025,0.0,0.0,0.0,0.0025,-0.0,-0.0,-0.01,0.02,0.0,0.0,0.0,0.02,0.0,0.0,0.0,0.02,-0.18960820312499999,-0.131385078125,1.3916092968749998,0.04,0.0,0.0,0.0,0.04,0.0,0.0,0.0,0.04
1614725355.2043777,1319,1614725355,194387912,base_imu_link,-0.14056076199415554,0.03497999753629177,0.6326214245794549,0.7607951137612835,0.0025,0.0,0.0,0.0,0.0025,0.0,0.0,0.0,0.0025,0.0,-0.01,-0.02,0.02,0.0,0.0,0.0,0.02,0.0,0.0,0.0,0.02,-0.20339789062499997,-0.23480773437499997,1.036907890625,0.04,0.0,0.0,0.0,0.04,0.0,0.0,0.0,0.04
1614725355.2225606,1320,1614725355,214402914,base_imu_link,-0.14035925330403354,0.03501042500939771,0.6320216279904183,0.7613292401483978,0.0025,0.0,0.0,0.0,0.0025,0.0,0.0,0.0,0.0025,0.02,-0.03,-0.01,0.02,0.0,0.0,0.0,0.02,0.0,0.0,0.0,0.02,-0.21259101562499996,-0.25281093749999994,0.6469661718749999,0.04,0.0,0.0,0.0,0.04,0.0,0.0,0.0,0.04
1614725355.2427218,1321,1614725355,234587907,base_imu_link,-0.1401424712154149,0.035101708438661,0.6310888967111534,0.762138282908176,0.0025,0.0,0.0,0.0,0.0025,0.0,0.0,0.0,0.0025,0.01,-0.02,-0.01,0.02,0.0,0.0,0.0,0.02,0.0,0.0,0.0,0.02,-0.12563937499999997,-0.1853946875,1.161015078125,0.04,0.0,0.0,0.0,0.04,0.0,0.0,0.0,0.04
1614725355.2630458,1322,1614725355,254367113,base_imu_link,-0.13997193946084316,0.03543227566483517,0.6305469507716333,0.7626027490622996,0.0025,0.0,0.0,0.0,0.0025,0.0,0.0,0.0,0.0025,0.03,-0.01,-0.0,0.02,0.0,0.0,0.0,0.02,0.0,0.0,0.0,0.02,-0.226380703125,-0.08618554687499999,1.1966384374999999,0.04,0.0,0.0,0.0,0.04,0.0,0.0,0.0,0.04
1614725355.282558,1323,1614725355,274389028,base_imu_link,-0.13990037115603876,0.035364029641962225,0.6298852409805069,0.7631656797529706,0.0025,0.0,0.0,0.0,0.0025,0.0,0.0,0.0,0.0025,0.0,-0.02,-0.01,0.02,0.0,0.0,0.0,0.02,0.0,0.0,0.0,0.02,-0.04749781249999999,0.10265656249999999,0.8066967187499999,0.04,0.0,0.0,0.0,0.04,0.0,0.0,0.0,0.04
1614725355.3029053,1324,1614725355,294924020,base_imu_link,-0.13991717622744124,0.03515531015692702,0.6296924690179917,0.7633313058078616,0.0025,0.0,0.0,0.0,0.0025,0.0,0.0,0.0,0.0025,-0.01,-0.02,-0.03,0.02,0.0,0.0,0.0,0.02,0.0,0.0,0.0,0.02,0.030260703125,0.021450625,0.39875179687499995,0.04,0.0,0.0,0.0,0.04,0.0,0.0,0.0,0.04
1614725355.3207211,1325,1614725355,312510967,base_imu_link,-0.14004734171938726,0.035057629123027616,0.6296319816979093,0.7633618226901112,0.0025,0.0,0.0,0.0,0.0025,0.0,0.0,0.0,0.0025,-0.01,-0.01,-0.03,0.02,0.0,0.0,0.0,0.02,0.0,0.0,0.0,0.02,0.039453828125,-0.06396882812499999,-0.5944887499999999,0.04,0.0,0.0,0.0,0.04,0.0,0.0,0.0,0.04
1614725355.3436747,1326,1614725355,335403919,base_imu_link,-0.14024706250265967,0.03468389636353042,0.6287850146987064,0.7640400474338805,0.0025,0.0,0.0,0.0,0.0025,0.0,0.0,0.0,0.0025,-0.03,-0.02,-0.06,0.02,0.0,0.0,0.0,0.02,0.0,0.0,0.0,0.02,0.126788515625,-0.12219195312499999,0.9128007031249998,0.04,0.0,0.0,0.0,0.04,0.0,0.0,0.0,0.04
1614725355.3615277,1327,1614725355,352662086,base_imu_link,-0.1405583567062375,0.03478405528018311,0.6271315484188731,0.7653361606745457,0.0025,0.0,0.0,0.0,0.0025,0.0,0.0,0.0,0.0025,-0.03,0.0,-0.08,0.02,0.0,0.0,0.0,0.02,0.0,0.0,0.0,0.02,-0.04749781249999999,-0.39224,2.597440859375,0.04,0.0,0.0,0.0,0.04,0.0,0.0,0.0,0.04
1614725355.3860884,1328,1614725355,375124931,base_imu_link,-0.14037121616060533,0.035040435874035235,0.6256582757673369,0.7665636382526848,0.0025,0.0,0.0,0.0,0.0025,0.0,0.0,0.0,0.0025,0.03,-0.01,-0.07,0.02,0.0,0.0,0.0,0.02,0.0,0.0,0.0,0.02,-0.0019152343749999998,-0.401433125,-0.18654382812499998,0.04,0.0,0.0,0.0,0.04,0.0,0.0,0.0,0.04
1614725355.4361424,1329,1614725355,395353078,base_imu_link,-0.14016505975006094,0.035504689617795356,0.6243768693462605,0.7676240603744574,0.0025,0.0,0.0,0.0,0.0025,0.0,0.0,0.0,0.0025,0.04,0.01,-0.06,0.02,0.0,0.0,0.0,0.02,0.0,0.0,0.0,0.02,0.007277890624999999,-0.28000726562499995,-0.04481648437499999,0.04,0.0,0.0,0.0,0.04,0.0,0.0,0.0,0.04
1614725355.438096,1330,1614725355,415431022,base_imu_link,-0.13988437606173335,0.036047142572340325,0.622956270153385,0.7688032585276756,0.0025,0.0,0.0,0.0,0.0025,0.0,0.0,0.0,0.0025,0.06,0.01,-0.06,0.02,0.0,0.0,0.0,0.02,0.0,0.0,0.0,0.02,-0.052094375,-0.07277890625,1.9236614062499997,0.04,0.0,0.0,0.0,0.04,0.0,0.0,0.0,0.04
1614725355.4445813,1331,1614725355,435378074,base_imu_link,-0.13997981388105657,0.036496082597274195,0.6216126870990776,0.769851514837986,0.0025,0.0,0.0,0.0,0.0025,0.0,0.0,0.0,0.0025,0.02,0.02,-0.07,0.02,0.0,0.0,0.0,0.02,0.0,0.0,0.0,0.02,-0.11184968749999999,0.260088828125,0.9128007031249998,0.04,0.0,0.0,0.0,0.04,0.0,0.0,0.0,0.04
1614725355.4616067,1332,1614725355,452989101,base_imu_link,-0.1401544555915028,0.03670748333382501,0.6199410295903693,0.7711565399292021,0.0025,0.0,0.0,0.0,0.0025,0.0,0.0,0.0,0.0025,-0.01,0.01,-0.08,0.02,0.0,0.0,0.0,0.02,0.0,0.0,0.0,0.02,-0.593339609375,0.20148265624999998,-0.558865390625,0.04,0.0,0.0,0.0,0.04,0.0,0.0,0.0,0.04
1614725355.4812095,1333,1614725355,473030090,base_imu_link,-0.1403243998671243,0.036870829348202946,0.6178654924235432,0.7727818825628092,0.0025,0.0,0.0,0.0,0.0025,0.0,0.0,0.0,0.0025,-0.02,-0.0,-0.06,0.02,0.0,0.0,0.0,0.02,0.0,0.0,0.0,0.02,-0.5887430468749999,-0.023365859375,-1.498862421875,0.04,0.0,0.0,0.0,0.04,0.0,0.0,0.0,0.04
1614725355.5041137,1334,1614725355,495671033,base_imu_link,-0.14042676730786885,0.03728481779131731,0.6167178582611191,0.7736596465420361,0.0025,0.0,0.0,0.0,0.0025,0.0,0.0,0.0,0.0025,0.02,0.03,-0.07,0.02,0.0,0.0,0.0,0.02,0.0,0.0,0.0,0.02,-1.4142090625,-0.20799445312499998,1.6930671875,0.04,0.0,0.0,0.0,0.04,0.0,0.0,0.0,0.04
1614725355.5330606,1335,1614725355,515857934,base_imu_link,-0.140464975456024,0.03760615248788445,0.6150316608880927,0.774978337807213,0.0025,0.0,0.0,0.0,0.0025,0.0,0.0,0.0,0.0025,0.02,0.01,-0.1,0.02,0.0,0.0,0.0,0.02,0.0,0.0,0.0,0.02,-1.721795703125,-0.08197203125,1.07253125,0.04,0.0,0.0,0.0,0.04,0.0,0.0,0.0,0.04
1614725355.5442374,1336,1614725355,536062002,base_imu_link,-0.14070195617941328,0.03745326964027273,0.6140332195203507,0.7757341151747887,0.0025,0.0,0.0,0.0,0.0025,0.0,0.0,0.0,0.0025,-0.03,-0.01,-0.07,0.02,0.0,0.0,0.0,0.02,0.0,0.0,0.0,0.02,-1.8822923437499999,-0.014172734375,0.6293460156249999,0.04,0.0,0.0,0.0,0.04,0.0,0.0,0.0,0.04
1614725355.5640082,1337,1614725355,555761098,base_imu_link,-0.14092327150409142,0.037362557630263485,0.6126948064989995,0.7767559107757487,0.0025,0.0,0.0,0.0,0.0025,0.0,0.0,0.0,0.0025,-0.02,-0.01,-0.04,0.02,0.0,0.0,0.0,0.02,0.0,0.0,0.0,0.02,-1.5655125781249997,-0.20339789062499997,0.6822064843749999,0.04,0.0,0.0,0.0,0.04,0.0,0.0,0.0,0.04
1614725355.581622,1338,1614725355,573451995,base_imu_link,-0.1409224465156593,0.03756740658997396,0.6112735796056403,0.7778651328516092,0.0025,0.0,0.0,0.0,0.0025,0.0,0.0,0.0,0.0025,-0.0,0.0,-0.05,0.02,0.0,0.0,0.0,0.02,0.0,0.0,0.0,0.02,-1.3180642968749998,-0.275410703125,0.5404791406249999,0.04,0.0,0.0,0.0,0.04,0.0,0.0,0.0,0.04
1614725355.606323,1339,1614725355,595808029,base_imu_link,-0.14081698919140626,0.037960789308477905,0.6090989897790232,0.7795690955138731,0.0025,0.0,0.0,0.0,0.0025,0.0,0.0,0.0,0.0025,0.02,-0.01,-0.05,0.02,0.0,0.0,0.0,0.02,0.0,0.0,0.0,0.02,-1.2537124218749998,-0.090782109375,0.8066967187499999,0.04,0.0,0.0,0.0,0.04,0.0,0.0,0.0,0.04
1614725355.624495,1340,1614725355,615557909,base_imu_link,-0.140805316389569,0.038202620786922686,0.6074682654946163,0.7808307941278996,0.0025,0.0,0.0,0.0,0.0025,0.0,0.0,0.0,0.0025,0.01,-0.01,-0.05,0.02,0.0,0.0,0.0,0.02,0.0,0.0,0.0,0.02,-1.08861921875,0.0260471875,0.18577773437499998,0.04,0.0,0.0,0.0,0.04,0.0,0.0,0.0,0.04
1614725355.6423705,1341,1614725355,633457899,base_imu_link,-0.14090620169530094,0.03848564100350374,0.6057018651479821,0.7821697694980343,0.0025,0.0,0.0,0.0,0.0025,0.0,0.0,0.0,0.0025,-0.01,0.0,-0.04,0.02,0.0,0.0,0.0,0.02,0.0,0.0,0.0,0.02,-1.043036640625,-0.018769296874999997,0.59372265625,0.04,0.0,0.0,0.0,0.04,0.0,0.0,0.0,0.04
1614725355.664972,1342,1614725355,656132936,base_imu_link,-0.14095864632780464,0.03868754138603063,0.6040007567644095,0.7834647535115782,0.0025,0.0,0.0,0.0,0.0025,0.0,0.0,0.0,0.0025,-0.01,-0.01,-0.04,0.02,0.0,0.0,0.0,0.02,0.0,0.0,0.0,0.02,-0.964895078125,-0.08618554687499999,0.4163719531249999,0.04,0.0,0.0,0.0,0.04,0.0,0.0,0.0,0.04
1614725355.6892624,1343,1614725355,676410913,base_imu_link,-0.14100414055070842,0.03859970311268141,0.6028476099131166,0.7843485542086579,0.0025,0.0,0.0,0.0,0.0025,0.0,0.0,0.0,0.0025,-0.01,-0.02,-0.04,0.02,0.0,0.0,0.0,0.02,0.0,0.0,0.0,0.02,-0.8867535156249998,-0.050179140625,0.5580992968749999,0.04,0.0,0.0,0.0,0.04,0.0,0.0,0.0,0.04
1614725355.7170362,1344,1614725355,696130990,base_imu_link,-0.14108039195222427,0.038716142002945216,0.6016215812633272,0.7852699257664388,0.0025,0.0,0.0,0.0,0.0025,0.0,0.0,0.0,0.0025,-0.01,-0.01,-0.03,0.02,0.0,0.0,0.0,0.02,0.0,0.0,0.0,0.02,-0.8867535156249998,0.0260471875,1.019287734375,0.04,0.0,0.0,0.0,0.04,0.0,0.0,0.0,0.04
1614725355.7249315,1345,1614725355,716434955,base_imu_link,-0.14118105676811676,0.03868617545512679,0.6005344673686083,0.7860850097418184,0.0025,0.0,0.0,0.0,0.0025,0.0,0.0,0.0,0.0025,-0.02,-0.01,-0.03,0.02,0.0,0.0,0.0,0.02,0.0,0.0,0.0,0.02,-0.8227846875,0.008043984374999999,0.6469661718749999,0.04,0.0,0.0,0.0,0.04,0.0,0.0,0.0,0.04
1614725355.7454684,1346,1614725355,736493110,base_imu_link,-0.14127870198822828,0.03866889215850505,0.599377495888079,0.7869508641374575,0.0025,0.0,0.0,0.0,0.0025,0.0,0.0,0.0,0.0025,-0.02,-0.01,-0.03,0.02,0.0,0.0,0.0,0.02,0.0,0.0,0.0,0.02,-0.8913500781249999,-0.113381875,0.8595571875,0.04,0.0,0.0,0.0,0.04,0.0,0.0,0.0,0.04
1614725355.764549,1347,1614725355,756439924,base_imu_link,-0.1413789644708443,0.03870001233524991,0.5986285647948906,0.787501199276555,0.0025,0.0,0.0,0.0,0.0025,0.0,0.0,0.0,0.0025,-0.01,-0.01,-0.02,0.02,0.0,0.0,0.0,0.02,0.0,0.0,0.0,0.02,-0.8503640624999999,-0.18079812499999998,0.7354499999999999,0.04,0.0,0.0,0.0,0.04,0.0,0.0,0.0,0.04
1614725355.7873735,1348,1614725355,776587009,base_imu_link,-0.1413496861793594,0.03875067155851849,0.5976690505582608,0.7882324261761549,0.0025,0.0,0.0,0.0,0.0025,0.0,0.0,0.0,0.0025,-0.0,-0.01,-0.01,0.02,0.0,0.0,0.0,0.02,0.0,0.0,0.0,0.02,-0.8365743749999999,-0.158198359375,0.8775603906249999,0.04,0.0,0.0,0.0,0.04,0.0,0.0,0.0,0.04
1614725355.8052428,1349,1614725355,796766996,base_imu_link,-0.1413323936838669,0.03906728499222889,0.5962927816686114,0.7892615664460257,0.0025,0.0,0.0,0.0,0.0025,0.0,0.0,0.0,0.0025,0.0,-0.01,-0.01,0.02,0.0,0.0,0.0,0.02,0.0,0.0,0.0,0.02,-0.8411709374999999,-0.059372265625,0.753453203125,0.04,0.0,0.0,0.0,0.04,0.0,0.0,0.0,0.04
1614725355.827808,1350,1614725355,816600084,base_imu_link,-0.14137652358219913,0.03935671479553295,0.5947802328727878,0.7903797834991148,0.0025,0.0,0.0,0.0,0.0025,0.0,0.0,0.0,0.0025,-0.0,-0.0,-0.01,0.02,0.0,0.0,0.0,0.02,0.0,0.0,0.0,0.02,-0.808995,0.008043984374999999,0.59372265625,0.04,0.0,0.0,0.0,0.04,0.0,0.0,0.0,0.04
