Time,header.seq,header.stamp.secs,header.stamp.nsecs,header.frame_id,orientation.x,orientation.y,orientation.z,orientation.w,orientation_covariance_0,orientation_covariance_1,orientation_covariance_2,orientation_covariance_3,orientation_covariance_4,orientation_covariance_5,orientation_covariance_6,orientation_covariance_7,orientation_covariance_8,angular_velocity.x,angular_velocity.y,angular_velocity.z,angular_velocity_covariance_0,angular_velocity_covariance_1,angular_velocity_covariance_2,angular_velocity_covariance_3,angular_velocity_covariance_4,angular_velocity_covariance_5,angular_velocity_covariance_6,angular_velocity_covariance_7,angular_velocity_covariance_8,linear_acceleration.x,linear_acceleration.y,linear_acceleration.z,linear_acceleration_covariance_0,linear_acceleration_covariance_1,linear_acceleration_covariance_2,linear_acceleration_covariance_3,linear_acceleration_covariance_4,linear_acceleration_covariance_5,linear_acceleration_covariance_6,linear_acceleration_covariance_7,linear_acceleration_covariance_8
1614383753.4815187,1,1614383753,480834007,base_imu_link,0.06676581933900963,0.06614285952773503,-0.6690349789683069,0.737264975716575,0.0025,0.0,0.0,0.0,0.0025,0.0,0.0,0.0,0.0025,0.01,-0.05,-0.01,0.02,0.0,0.0,0.0,0.02,0.0,0.0,0.0,0.02,-1.89148546875,0.090782109375,9.662357421874999,0.04,0.0,0.0,0.0,0.04,0.0,0.0,0.0,0.04
1614383753.5020835,2,1614383753,501203060,base_imu_link,0.06676004703141433,0.06614868569275059,-0.6689706379144627,0.7373233572251741,0.0025,0.0,0.0,0.0,0.0025,0.0,0.0,0.0,0.0025,0.01,-0.05,-0.01,0.02,0.0,0.0,0.0,0.02,0.0,0.0,0.0,0.02,-1.8960820312499997,0.09576171874999999,9.662357421874999,0.04,0.0,0.0,0.0,0.04,0.0,0.0,0.0,0.04
1614383753.5216575,3,1614383753,520874023,base_imu_link,0.06674850089104725,0.06616033651148417,-0.6688419405237563,0.7374401033968122,0.0025,0.0,0.0,0.0,0.0025,0.0,0.0,0.0,0.0025,0.01,-0.05,-0.01,0.02,0.0,0.0,0.0,0.02,0.0,0.0,0.0,0.02,-1.9056582031249998,0.09576171874999999,9.6573778125,0.04,0.0,0.0,0.0,0.04,0.0,0.0,0.0,0.04
1614383753.54183,4,1614383753,541063070,base_imu_link,0.06684228275748197,0.06619555019307947,-0.6685207141771501,0.7377196710719307,0.0025,0.0,0.0,0.0,0.0025,0.0,0.0,0.0,0.0025,0.01,-0.05,-0.01,0.02,0.0,0.0,0.0,0.02,0.0,0.0,0.0,0.02,-1.89148546875,0.09576171874999999,9.648184687499999,0.04,0.0,0.0,0.0,0.04,0.0,0.0,0.0,0.04
1614383753.562227,5,1614383753,561285018,base_imu_link,0.06687115965117789,0.06616637844481407,-0.6688425414589059,0.7374279036659761,0.0025,0.0,0.0,0.0,0.0025,0.0,0.0,0.0,0.0025,0.01,-0.05,-0.01,0.02,0.0,0.0,0.0,0.02,0.0,0.0,0.0,0.02,-1.89148546875,0.090782109375,9.648184687499999,0.04,0.0,0.0,0.0,0.04,0.0,0.0,0.0,0.04
1614383753.5818508,6,1614383753,581075906,base_imu_link,0.06685961042115068,0.06617804865608866,-0.6687138258233543,0.7375446274789729,0.0025,0.0,0.0,0.0,0.0025,0.0,0.0,0.0,0.0025,0.01,-0.05,-0.01,0.02,0.0,0.0,0.0,0.02,0.0,0.0,0.0,0.02,-1.89148546875,0.08120593749999999,9.648184687499999,0.04,0.0,0.0,0.0,0.04,0.0,0.0,0.0,0.04
1614383753.6018627,7,1614383753,601010084,base_imu_link,0.06678946678493725,0.06624223342682795,-0.6686436821871409,0.7376088122497122,0.0025,0.0,0.0,0.0,0.0025,0.0,0.0,0.0,0.0025,0.01,-0.05,-0.01,0.02,0.0,0.0,0.0,0.02,0.0,0.0,0.0,0.02,-1.89148546875,0.090782109375,9.652781249999999,0.04,0.0,0.0,0.0,0.04,0.0,0.0,0.0,0.04
1614383753.6222527,8,1614383753,621042966,base_imu_link,0.06678946678493725,0.06624223342682795,-0.6686436821871409,0.7376088122497122,0.0025,0.0,0.0,0.0,0.0025,0.0,0.0,0.0,0.0025,0.01,-0.05,-0.01,0.02,0.0,0.0,0.0,0.02,0.0,0.0,0.0,0.02,-1.8960820312499997,0.090782109375,9.652781249999999,0.04,0.0,0.0,0.0,0.04,0.0,0.0,0.0,0.04
1614383753.6421473,9,1614383753,641257047,base_imu_link,0.06678946678493725,0.06624223342682795,-0.6686436821871409,0.7376088122497122,0.0025,0.0,0.0,0.0,0.0025,0.0,0.0,0.0,0.0025,0.01,-0.05,-0.01,0.02,0.0,0.0,0.0,0.02,0.0,0.0,0.0,0.02,-1.89148546875,0.090782109375,9.643205078125,0.04,0.0,0.0,0.0,0.04,0.0,0.0,0.0,0.04
1614383753.6619768,10,1614383753,661247968,base_imu_link,0.06678946678493725,0.06624223342682795,-0.6686436821871409,0.7376088122497122,0.0025,0.0,0.0,0.0,0.0025,0.0,0.0,0.0,0.0025,0.01,-0.05,-0.01,0.02,0.0,0.0,0.0,0.02,0.0,0.0,0.0,0.02,-1.9010616406249998,0.08618554687499999,9.6573778125,0.04,0.0,0.0,0.0,0.04,0.0,0.0,0.0,0.04
1614383753.6819563,11,1614383753,681225061,base_imu_link,0.06687668056586185,0.06627748324187466,-0.668960279162886,0.7373106195586282,0.0025,0.0,0.0,0.0,0.0025,0.0,0.0,0.0,0.0025,0.01,-0.05,-0.01,0.02,0.0,0.0,0.0,0.02,0.0,0.0,0.0,0.02,-1.9056582031249998,0.09576171874999999,9.662357421874999,0.04,0.0,0.0,0.0,0.04,0.0,0.0,0.0,0.04
1614383753.7020779,12,1614383753,701179981,base_imu_link,0.06687089650970915,0.06628331908084469,-0.6688959341261498,0.7373689945482654,0.0025,0.0,0.0,0.0,0.0025,0.0,0.0,0.0,0.0025,0.01,-0.05,-0.01,0.02,0.0,0.0,0.0,0.02,0.0,0.0,0.0,0.02,-1.9106378124999999,0.090782109375,9.6573778125,0.04,0.0,0.0,0.0,0.04,0.0,0.0,0.0,0.04
1614383753.722504,13,1614383753,721693992,base_imu_link,0.06690025086784941,0.06637691924622956,-0.6685689488656524,0.7376544052860219,0.0025,0.0,0.0,0.0,0.0025,0.0,0.0,0.0,0.0025,0.01,-0.05,-0.01,0.02,0.0,0.0,0.0,0.02,0.0,0.0,0.0,0.02,-1.8960820312499997,0.08618554687499999,9.66733703125,0.04,0.0,0.0,0.0,0.04,0.0,0.0,0.0,0.04
1614383753.7425437,14,1614383753,741643905,base_imu_link,0.06690025086784941,0.06637691924622956,-0.6685689488656524,0.7376544052860219,0.0025,0.0,0.0,0.0,0.0025,0.0,0.0,0.0,0.0025,0.01,-0.05,-0.01,0.02,0.0,0.0,0.0,0.02,0.0,0.0,0.0,0.02,-1.886505859375,0.10074132812499999,9.66733703125,0.04,0.0,0.0,0.0,0.04,0.0,0.0,0.0,0.04
1614383753.762292,15,1614383753,761404037,base_imu_link,0.06696462310360085,0.0663185753463875,-0.6685747387988641,0.7376485643290094,0.0025,0.0,0.0,0.0,0.0025,0.0,0.0,0.0,0.0025,0.01,-0.05,-0.01,0.02,0.0,0.0,0.0,0.02,0.0,0.0,0.0,0.02,-1.9056582031249998,0.090782109375,9.662357421874999,0.04,0.0,0.0,0.0,0.04,0.0,0.0,0.0,0.04
1614383753.7821023,16,1614383753,781403064,base_imu_link,0.06697041023608627,0.06631273132809495,-0.6686391082338893,0.7375902173678874,0.0025,0.0,0.0,0.0,0.0025,0.0,0.0,0.0,0.0025,0.01,-0.05,-0.01,0.02,0.0,0.0,0.0,0.02,0.0,0.0,0.0,0.02,-1.9010616406249998,0.08618554687499999,9.662357421874999,0.04,0.0,0.0,0.0,0.04,0.0,0.0,0.0,0.04
1614383753.8023129,17,1614383753,801451921,base_imu_link,0.06689445813417863,0.06638275714171783,-0.668504573829442,0.7377127461243396,0.0025,0.0,0.0,0.0,0.0025,0.0,0.0,0.0,0.0025,0.01,-0.05,-0.01,0.02,0.0,0.0,0.0,0.02,0.0,0.0,0.0,0.02,-1.8960820312499997,0.08618554687499999,9.662357421874999,0.04,0.0,0.0,0.0,0.04,0.0,0.0,0.0,0.04
1614383753.8223822,18,1614383753,821681976,base_imu_link,0.06692341670734613,0.06635356260982957,-0.6688263980911558,0.7374209857615994,0.0025,0.0,0.0,0.0,0.0025,0.0,0.0,0.0,0.0025,0.01,-0.05,-0.01,0.02,0.0,0.0,0.0,0.02,0.0,0.0,0.0,0.02,-1.9010616406249998,0.090782109375,9.67193359375,0.04,0.0,0.0,0.0,0.04,0.0,0.0,0.0,0.04
1614383753.8424907,19,1614383753,841681957,base_imu_link,0.06690025086784941,0.06637691924622956,-0.6685689488656524,0.7376544052860219,0.0025,0.0,0.0,0.0,0.0025,0.0,0.0,0.0,0.0025,0.01,-0.05,-0.01,0.02,0.0,0.0,0.0,0.02,0.0,0.0,0.0,0.02,-1.8960820312499997,0.08618554687499999,9.662357421874999,0.04,0.0,0.0,0.0,0.04,0.0,0.0,0.0,0.04
1614383753.8625088,20,1614383753,861686944,base_imu_link,0.06689445813417863,0.06638275714171783,-0.668504573829442,0.7377127461243396,0.0025,0.0,0.0,0.0,0.0025,0.0,0.0,0.0,0.0025,0.01,-0.05,-0.01,0.02,0.0,0.0,0.0,0.02,0.0,0.0,0.0,0.02,-1.886505859375,0.08618554687499999,9.652781249999999,0.04,0.0,0.0,0.0,0.04,0.0,0.0,0.0,0.04
1614383753.8823345,21,1614383753,881661891,base_imu_link,0.06690025086784941,0.06637691924622956,-0.6685689488656524,0.7376544052860219,0.0025,0.0,0.0,0.0,0.0025,0.0,0.0,0.0,0.0025,0.01,-0.05,-0.01,0.02,0.0,0.0,0.0,0.02,0.0,0.0,0.0,0.02,-1.8960820312499997,0.09576171874999999,9.662357421874999,0.04,0.0,0.0,0.0,0.04,0.0,0.0,0.0,0.04
1614383753.9029014,22,1614383753,902153015,base_imu_link,0.06692920689320314,0.0663477221873402,-0.6688907476652463,0.7373626168399277,0.0025,0.0,0.0,0.0,0.0025,0.0,0.0,0.0,0.0025,0.01,-0.05,-0.01,0.02,0.0,0.0,0.0,0.02,0.0,0.0,0.0,0.02,-1.89148546875,0.08618554687499999,9.6573778125,0.04,0.0,0.0,0.0,0.04,0.0,0.0,0.0,0.04
1614383753.9234064,23,1614383753,921554088,base_imu_link,0.06688246411271952,0.0662716468981727,-0.6690246191051986,0.7372522389540492,0.0025,0.0,0.0,0.0,0.0025,0.0,0.0,0.0,0.0025,0.01,-0.05,-0.01,0.02,0.0,0.0,0.0,0.02,0.0,0.0,0.0,0.02,-1.89148546875,0.090782109375,9.6573778125,0.04,0.0,0.0,0.0,0.04,0.0,0.0,0.0,0.04
1614383753.9428892,24,1614383753,942182064,base_imu_link,0.06687668056586185,0.06627748324187466,-0.668960279162886,0.7373106195586282,0.0025,0.0,0.0,0.0,0.0025,0.0,0.0,0.0,0.0025,0.01,-0.05,-0.01,0.02,0.0,0.0,0.0,0.02,0.0,0.0,0.0,0.02,-1.89148546875,0.090782109375,9.6573778125,0.04,0.0,0.0,0.0,0.04,0.0,0.0,0.0,0.04
1614383753.9628782,25,1614383753,962097883,base_imu_link,0.06689402967837355,0.06625997269675094,-0.6691532837045923,0.7371354609018455,0.0025,0.0,0.0,0.0,0.0025,0.0,0.0,0.0,0.0025,0.01,-0.05,-0.01,0.02,0.0,0.0,0.0,0.02,0.0,0.0,0.0,0.02,-1.881909296875,0.10074132812499999,9.6573778125,0.04,0.0,0.0,0.0,0.04,0.0,0.0,0.0,0.04
1614383753.9828331,26,1614383753,982074022,base_imu_link,0.06688847967671124,0.06614886934886995,-0.6690355767095539,0.7372527758288328,0.0025,0.0,0.0,0.0,0.0025,0.0,0.0,0.0,0.0025,0.01,-0.05,-0.01,0.02,0.0,0.0,0.0,0.02,0.0,0.0,0.0,0.02,-1.89148546875,0.090782109375,9.662357421874999,0.04,0.0,0.0,0.0,0.04,0.0,0.0,0.0,0.04
1614383754.0028546,27,1614383754,2147912,base_imu_link,0.06687115965117789,0.06616637844481407,-0.6688425414589059,0.7374279036659761,0.0025,0.0,0.0,0.0,0.0025,0.0,0.0,0.0,0.0025,0.01,-0.05,-0.01,0.02,0.0,0.0,0.0,0.02,0.0,0.0,0.0,0.02,-1.89148546875,0.090782109375,9.6573778125,0.04,0.0,0.0,0.0,0.04,0.0,0.0,0.0,0.04
1614383754.0226092,28,1614383754,21981000,base_imu_link,0.06677790431696246,0.06625388937885233,-0.668514934980114,0.7377255013524633,0.0025,0.0,0.0,0.0,0.0025,0.0,0.0,0.0,0.0025,0.01,-0.05,-0.01,0.02,0.0,0.0,0.0,0.02,0.0,0.0,0.0,0.02,-1.8960820312499997,0.08618554687499999,9.6573778125,0.04,0.0,0.0,0.0,0.04,0.0,0.0,0.0,0.04
1614383754.0429523,29,1614383754,42185068,base_imu_link,0.06682460573115237,0.06632998761692437,-0.6683809904918104,0.7378357922741353,0.0025,0.0,0.0,0.0,0.0025,0.0,0.0,0.0,0.0025,0.01,-0.05,-0.01,0.02,0.0,0.0,0.0,0.02,0.0,0.0,0.0,0.02,-1.8960820312499997,0.090782109375,9.6573778125,0.04,0.0,0.0,0.0,0.04,0.0,0.0,0.0,0.04
1614383754.0632248,30,1614383754,62386989,base_imu_link,0.06683039386007937,0.06632415581740914,-0.6684453762662936,0.7377774622200299,0.0025,0.0,0.0,0.0,0.0025,0.0,0.0,0.0,0.0025,0.01,-0.05,-0.01,0.02,0.0,0.0,0.0,0.02,0.0,0.0,0.0,0.02,-1.8960820312499997,0.09576171874999999,9.6573778125,0.04,0.0,0.0,0.0,0.04,0.0,0.0,0.0,0.04
1614383754.0828984,31,1614383754,82178115,base_imu_link,0.06691212289400937,0.06624830741919542,-0.6686442868462098,0.7375966019728075,0.0025,0.0,0.0,0.0,0.0025,0.0,0.0,0.0,0.0025,0.01,-0.05,-0.01,0.02,0.0,0.0,0.0,0.02,0.0,0.0,0.0,0.02,-1.89148546875,0.090782109375,9.66733703125,0.04,0.0,0.0,0.0,0.04,0.0,0.0,0.0,0.04
1614383754.1041229,32,1614383754,103102922,base_imu_link,0.06689477683484012,0.0662658227015116,-0.6684511615954981,0.7377716273587226,0.0025,0.0,0.0,0.0,0.0025,0.0,0.0,0.0,0.0025,0.01,-0.05,-0.01,0.02,0.0,0.0,0.0,0.02,0.0,0.0,0.0,0.02,-1.89148546875,0.08120593749999999,9.6573778125,0.04,0.0,0.0,0.0,0.04,0.0,0.0,0.0,0.04
1614383754.1230319,33,1614383754,122250080,base_imu_link,0.06681881709332685,0.06633581891130788,-0.6683165996273147,0.7378941167093002,0.0025,0.0,0.0,0.0,0.0025,0.0,0.0,0.0,0.0025,0.01,-0.05,-0.01,0.02,0.0,0.0,0.0,0.02,0.0,0.0,0.0,0.02,-1.8960820312499997,0.08618554687499999,9.6573778125,0.04,0.0,0.0,0.0,0.04,0.0,0.0,0.0,0.04
1614383754.1431496,34,1614383754,142360925,base_imu_link,0.06680144812690035,0.06635330976322389,-0.6681233964986577,0.7380690562967072,0.0025,0.0,0.0,0.0,0.0025,0.0,0.0,0.0,0.0025,0.01,-0.05,-0.01,0.02,0.0,0.0,0.0,0.02,0.0,0.0,0.0,0.02,-1.8960820312499997,0.08618554687499999,9.662357421874999,0.04,0.0,0.0,0.0,0.04,0.0,0.0,0.0,0.04
1614383754.1634655,35,1614383754,162667036,base_imu_link,0.06680144812690035,0.06635330976322389,-0.6681233964986577,0.7380690562967072,0.0025,0.0,0.0,0.0,0.0025,0.0,0.0,0.0,0.0025,0.01,-0.05,-0.01,0.02,0.0,0.0,0.0,0.02,0.0,0.0,0.0,0.02,-1.9010616406249998,0.090782109375,9.6573778125,0.04,0.0,0.0,0.0,0.04,0.0,0.0,0.0,0.04
1614383754.183083,36,1614383754,182378053,base_imu_link,0.06678986627226527,0.06636496780469514,-0.6679945689718157,0.7381856545854658,0.0025,0.0,0.0,0.0,0.0025,0.0,0.0,0.0,0.0025,0.01,-0.05,-0.01,0.02,0.0,0.0,0.0,0.02,0.0,0.0,0.0,0.02,-1.9056582031249998,0.08618554687499999,9.662357421874999,0.04,0.0,0.0,0.0,0.04,0.0,0.0,0.0,0.04
1614383754.2038176,37,1614383754,203098058,base_imu_link,0.06678948127599327,0.06648190669219026,-0.6680480069596515,0.7381268059559224,0.0025,0.0,0.0,0.0,0.0025,0.0,0.0,0.0,0.0025,0.01,-0.05,-0.01,0.02,0.0,0.0,0.0,0.02,0.0,0.0,0.0,0.02,-1.89148546875,0.090782109375,9.66733703125,0.04,0.0,0.0,0.0,0.04,0.0,0.0,0.0,0.04
1614383754.2231178,38,1614383754,222291946,base_imu_link,0.06678948127599327,0.06648190669219026,-0.6680480069596515,0.7381268059559224,0.0025,0.0,0.0,0.0,0.0025,0.0,0.0,0.0,0.0025,0.01,-0.05,-0.01,0.02,0.0,0.0,0.0,0.02,0.0,0.0,0.0,0.02,-1.881909296875,0.09576171874999999,9.662357421874999,0.04,0.0,0.0,0.0,0.04,0.0,0.0,0.0,0.04
1614383754.2432184,39,1614383754,242562055,base_imu_link,0.06677828238309452,0.06637662382457388,-0.6678657210966956,0.7383022303878034,0.0025,0.0,0.0,0.0,0.0025,0.0,0.0,0.0,0.0025,0.01,-0.05,-0.01,0.02,0.0,0.0,0.0,0.02,0.0,0.0,0.0,0.02,-1.89148546875,0.090782109375,9.66733703125,0.04,0.0,0.0,0.0,0.04,0.0,0.0,0.0,0.04
1614383754.2633145,40,1614383754,262528896,base_imu_link,0.06676090273535593,0.06639410406312932,-0.6676724111395801,0.7384770519215028,0.0025,0.0,0.0,0.0,0.0025,0.0,0.0,0.0,0.0025,0.01,-0.05,-0.01,0.02,0.0,0.0,0.0,0.02,0.0,0.0,0.0,0.02,-1.89148546875,0.08618554687499999,9.662357421874999,0.04,0.0,0.0,0.0,0.04,0.0,0.0,0.0,0.04
1614383754.2833269,41,1614383754,282576084,base_imu_link,0.06677248967566854,0.0663824510763051,-0.667801289529758,0.7383605098554546,0.0025,0.0,0.0,0.0,0.0025,0.0,0.0,0.0,0.0025,0.01,-0.05,-0.01,0.02,0.0,0.0,0.0,0.02,0.0,0.0,0.0,0.02,-1.8960820312499997,0.090782109375,9.6573778125,0.04,0.0,0.0,0.0,0.04,0.0,0.0,0.0,0.04
1614383754.3039505,42,1614383754,303165912,base_imu_link,0.06676090273535593,0.06639410406312932,-0.6676724111395801,0.7384770519215028,0.0025,0.0,0.0,0.0,0.0025,0.0,0.0,0.0,0.0025,0.01,-0.05,-0.01,0.02,0.0,0.0,0.0,0.02,0.0,0.0,0.0,0.02,-1.8960820312499997,0.090782109375,9.652781249999999,0.04,0.0,0.0,0.0,0.04,0.0,0.0,0.0,0.04
1614383754.323752,43,1614383754,322952032,base_imu_link,0.06674351851189725,0.06641157975110462,-0.6674790554209192,0.7386518228407832,0.0025,0.0,0.0,0.0,0.0025,0.0,0.0,0.0,0.0025,0.01,-0.05,-0.01,0.02,0.0,0.0,0.0,0.02,0.0,0.0,0.0,0.02,-1.8960820312499997,0.08618554687499999,9.662357421874999,0.04,0.0,0.0,0.0,0.04,0.0,0.0,0.0,0.04
1614383754.3435318,44,1614383754,342756032,base_imu_link,0.06675510850255754,0.0663999297981336,-0.6676079643173216,0.7385353145190123,0.0025,0.0,0.0,0.0,0.0025,0.0,0.0,0.0,0.0025,0.01,-0.05,-0.01,0.02,0.0,0.0,0.0,0.02,0.0,0.0,0.0,0.02,-1.9010616406249998,0.09576171874999999,9.66733703125,0.04,0.0,0.0,0.0,0.04,0.0,0.0,0.0,0.04
1614383754.3637185,45,1614383754,362895965,base_imu_link,0.06673192648811309,0.06642322768106329,-0.6673501261919421,0.7387683086619334,0.0025,0.0,0.0,0.0,0.0025,0.0,0.0,0.0,0.0025,0.01,-0.05,-0.01,0.02,0.0,0.0,0.0,0.02,0.0,0.0,0.0,0.02,-1.8960820312499997,0.090782109375,9.662357421874999,0.04,0.0,0.0,0.0,0.04,0.0,0.0,0.0,0.04
1614383754.383381,46,1614383754,382648944,base_imu_link,0.06672612971390993,0.06642905088730208,-0.6672856539539652,0.7388265431336666,0.0025,0.0,0.0,0.0,0.0025,0.0,0.0,0.0,0.0025,0.01,-0.05,-0.01,0.02,0.0,0.0,0.0,0.02,0.0,0.0,0.0,0.02,-1.9056582031249998,0.09576171874999999,9.66733703125,0.04,0.0,0.0,0.0,0.04,0.0,0.0,0.0,0.04
1614383754.4042983,47,1614383754,403254985,base_imu_link,0.0668017051429167,0.06647609468674046,-0.6674738812138875,0.7386454351869153,0.0025,0.0,0.0,0.0,0.0025,0.0,0.0,0.0,0.0025,0.01,-0.05,-0.01,0.02,0.0,0.0,0.0,0.02,0.0,0.0,0.0,0.02,-1.9056582031249998,0.09576171874999999,9.67193359375,0.04,0.0,0.0,0.0,0.04,0.0,0.0,0.0,0.04
1614383754.4238906,48,1614383754,423156976,base_imu_link,0.06686616386271703,0.06641784634920096,-0.6674796798059587,0.7386396028258659,0.0025,0.0,0.0,0.0,0.0025,0.0,0.0,0.0,0.0025,0.01,-0.05,-0.01,0.02,0.0,0.0,0.0,0.02,0.0,0.0,0.0,0.02,-1.9056582031249998,0.10074132812499999,9.662357421874999,0.04,0.0,0.0,0.0,0.04,0.0,0.0,0.0,0.04
1614383754.4435968,49,1614383754,442962884,base_imu_link,0.06693595176847666,0.06647067971532754,-0.6676034117927414,0.7385166969417292,0.0025,0.0,0.0,0.0,0.0025,0.0,0.0,0.0,0.0025,0.01,-0.05,-0.01,0.02,0.0,0.0,0.0,0.02,0.0,0.0,0.0,0.02,-1.8960820312499997,0.090782109375,9.662357421874999,0.04,0.0,0.0,0.0,0.04,0.0,0.0,0.0,0.04
1614383754.4640415,50,1614383754,463058948,base_imu_link,0.0669185474915605,0.06648820122840783,-0.667410045697403,0.7386914497956646,0.0025,0.0,0.0,0.0,0.0025,0.0,0.0,0.0,0.0025,0.01,-0.05,-0.01,0.02,0.0,0.0,0.0,0.02,0.0,0.0,0.0,0.02,-1.89148546875,0.08618554687499999,9.652781249999999,0.04,0.0,0.0,0.0,0.04,0.0,0.0,0.0,0.04
1614383754.4837182,51,1614383754,483027935,base_imu_link,0.06693015085252545,0.06647652072595012,-0.6675389615110648,0.7385749535177588,0.0025,0.0,0.0,0.0,0.0025,0.0,0.0,0.0,0.0025,0.01,-0.05,-0.01,0.02,0.0,0.0,0.0,0.02,0.0,0.0,0.0,0.02,-1.8960820312499997,0.090782109375,9.662357421874999,0.04,0.0,0.0,0.0,0.04,0.0,0.0,0.0,0.04
1614383754.5039291,52,1614383754,503010988,base_imu_link,0.06687730926449112,0.06652310295741957,-0.6676620542967269,0.7384642736996372,0.0025,0.0,0.0,0.0,0.0025,0.0,0.0,0.0,0.0025,0.01,-0.05,-0.01,0.02,0.0,0.0,0.0,0.02,0.0,0.0,0.0,0.02,-1.8960820312499997,0.08120593749999999,9.662357421874999,0.04,0.0,0.0,0.0,0.04,0.0,0.0,0.0,0.04
1614383754.5240588,53,1614383754,523299932,base_imu_link,0.06688891871758501,0.06651142965185863,-0.6677909304568421,0.7383477334413936,0.0025,0.0,0.0,0.0,0.0025,0.0,0.0,0.0,0.0025,0.01,-0.05,-0.01,0.02,0.0,0.0,0.0,0.02,0.0,0.0,0.0,0.02,-1.9010616406249998,0.08618554687499999,9.6573778125,0.04,0.0,0.0,0.0,0.04,0.0,0.0,0.0,0.04
1614383754.543657,54,1614383754,542879104,base_imu_link,0.06687730926449112,0.06652310295741957,-0.6676620542967269,0.7384642736996372,0.0025,0.0,0.0,0.0,0.0025,0.0,0.0,0.0,0.0025,0.01,-0.05,-0.01,0.02,0.0,0.0,0.0,0.02,0.0,0.0,0.0,0.02,-1.9106378124999999,0.09576171874999999,9.6573778125,0.04,0.0,0.0,0.0,0.04,0.0,0.0,0.0,0.04
1614383754.5638227,55,1614383754,563142061,base_imu_link,0.06692970064601787,0.06659344261668655,-0.6675924230996766,0.7385161373942987,0.0025,0.0,0.0,0.0,0.0025,0.0,0.0,0.0,0.0025,0.01,-0.05,-0.01,0.02,0.0,0.0,0.0,0.02,0.0,0.0,0.0,0.02,-1.9010616406249998,0.090782109375,9.662357421874999,0.04,0.0,0.0,0.0,0.04,0.0,0.0,0.0,0.04
1614383754.5839074,56,1614383754,583210945,base_imu_link,0.0669355117653306,0.0665876016449067,-0.6676568682484746,0.7384578761530894,0.0025,0.0,0.0,0.0,0.0025,0.0,0.0,0.0,0.0025,0.01,-0.05,-0.01,0.02,0.0,0.0,0.0,0.02,0.0,0.0,0.0,0.02,-1.9010616406249998,0.08618554687499999,9.66733703125,0.04,0.0,0.0,0.0,0.04,0.0,0.0,0.0,0.04
1614383754.6038165,57,1614383754,603120088,base_imu_link,0.06691226423006388,0.0666109624890198,-0.6673990571512042,0.7386908873714202,0.0025,0.0,0.0,0.0,0.0025,0.0,0.0,0.0,0.0025,0.01,-0.05,-0.01,0.02,0.0,0.0,0.0,0.02,0.0,0.0,0.0,0.02,-1.8960820312499997,0.09576171874999999,9.6573778125,0.04,0.0,0.0,0.0,0.04,0.0,0.0,0.0,0.04
1614383754.6240406,58,1614383754,623282909,base_imu_link,0.06691807687834027,0.06660512303878757,-0.6674635175505507,0.7386326430039077,0.0025,0.0,0.0,0.0,0.0025,0.0,0.0,0.0,0.0025,0.01,-0.05,-0.01,0.02,0.0,0.0,0.0,0.02,0.0,0.0,0.0,0.02,-1.8960820312499997,0.09576171874999999,9.6573778125,0.04,0.0,0.0,0.0,0.04,0.0,0.0,0.0,0.04
1614383754.6442065,59,1614383754,643369913,base_imu_link,0.06692388901700633,0.06659928308132834,-0.6675279728668717,0.7385743930113862,0.0025,0.0,0.0,0.0,0.0025,0.0,0.0,0.0,0.0025,0.01,-0.05,-0.01,0.02,0.0,0.0,0.0,0.02,0.0,0.0,0.0,0.02,-1.8960820312499997,0.090782109375,9.66733703125,0.04,0.0,0.0,0.0,0.04,0.0,0.0,0.0,0.04
1614383754.664258,60,1614383754,663369894,base_imu_link,0.0669645597148631,0.06655838918049341,-0.6679790177151828,0.738166485600743,0.0025,0.0,0.0,0.0,0.0025,0.0,0.0,0.0,0.0025,0.01,-0.05,-0.01,0.02,0.0,0.0,0.0,0.02,0.0,0.0,0.0,0.02,-1.886505859375,0.08618554687499999,9.662357421874999,0.04,0.0,0.0,0.0,0.04,0.0,0.0,0.0,0.04
1614383754.6840732,61,1614383754,683360099,base_imu_link,0.06692373485013454,0.06647639758027447,-0.6681774368690375,0.7379979777327181,0.0025,0.0,0.0,0.0,0.0025,0.0,0.0,0.0,0.0025,0.01,-0.05,-0.01,0.02,0.0,0.0,0.0,0.02,0.0,0.0,0.0,0.02,-1.881909296875,0.10074132812499999,9.6573778125,0.04,0.0,0.0,0.0,0.04,0.0,0.0,0.0,0.04
1614383754.7044828,62,1614383754,703505039,base_imu_link,0.0669356797925839,0.06634778786128795,-0.6682528152612268,0.7379402148630083,0.0025,0.0,0.0,0.0,0.0025,0.0,0.0,0.0,0.0025,0.01,-0.05,-0.01,0.02,0.0,0.0,0.0,0.02,0.0,0.0,0.0,0.02,-1.886505859375,0.090782109375,9.662357421874999,0.04,0.0,0.0,0.0,0.04,0.0,0.0,0.0,0.04
1614383754.724829,63,1614383754,723943948,base_imu_link,0.06690604309204569,0.06637108084525212,-0.6686333188104194,0.7375960588301448,0.0025,0.0,0.0,0.0,0.0025,0.0,0.0,0.0,0.0025,0.01,-0.05,-0.01,0.02,0.0,0.0,0.0,0.02,0.0,0.0,0.0,0.02,-1.89148546875,0.090782109375,9.6573778125,0.04,0.0,0.0,0.0,0.04,0.0,0.0,0.0,0.04
1614383754.7442636,64,1614383754,743432998,base_imu_link,0.06698776857331318,0.06629519624339329,-0.6688321859851363,0.7374151427838745,0.0025,0.0,0.0,0.0,0.0025,0.0,0.0,0.0,0.0025,0.01,-0.05,-0.01,0.02,0.0,0.0,0.0,0.02,0.0,0.0,0.0,0.02,-1.8960820312499997,0.09576171874999999,9.6573778125,0.04,0.0,0.0,0.0,0.04,0.0,0.0,0.0,0.04
1614383754.7643294,65,1614383754,763643980,base_imu_link,0.06700512231927083,0.06627765661489056,-0.6690252178953481,0.7372400176582252,0.0025,0.0,0.0,0.0,0.0025,0.0,0.0,0.0,0.0025,0.01,-0.05,-0.01,0.02,0.0,0.0,0.0,0.02,0.0,0.0,0.0,0.02,-1.9010616406249998,0.10074132812499999,9.6573778125,0.04,0.0,0.0,0.0,0.04,0.0,0.0,0.0,0.04
1614383754.7848141,66,1614383754,784128904,base_imu_link,0.06698776857331318,0.06629519624339329,-0.6688321859851363,0.7374151427838745,0.0025,0.0,0.0,0.0,0.0025,0.0,0.0,0.0,0.0025,0.01,-0.05,-0.01,0.02,0.0,0.0,0.0,0.02,0.0,0.0,0.0,0.02,-1.89148546875,0.09576171874999999,9.662357421874999,0.04,0.0,0.0,0.0,0.04,0.0,0.0,0.0,0.04
1614383754.8045382,67,1614383754,803673028,base_imu_link,0.06696462310360085,0.0663185753463875,-0.6685747387988641,0.7376485643290094,0.0025,0.0,0.0,0.0,0.0025,0.0,0.0,0.0,0.0025,0.01,-0.05,-0.01,0.02,0.0,0.0,0.0,0.02,0.0,0.0,0.0,0.02,-1.9010616406249998,0.10074132812499999,9.6573778125,0.04,0.0,0.0,0.0,0.04,0.0,0.0,0.0,0.04
1614383754.8247821,68,1614383754,823857069,base_imu_link,0.06708727548131761,0.06632465988370972,-0.6685753461164275,0.737636321994181,0.0025,0.0,0.0,0.0,0.0025,0.0,0.0,0.0,0.0025,0.01,-0.05,-0.01,0.02,0.0,0.0,0.0,0.02,0.0,0.0,0.0,0.02,-1.9010616406249998,0.09576171874999999,9.652781249999999,0.04,0.0,0.0,0.0,0.04,0.0,0.0,0.0,0.04
1614383754.8444016,69,1614383754,843769073,base_imu_link,0.06708148730742437,0.06633051410037341,-0.6685109726582577,0.7376946633908329,0.0025,0.0,0.0,0.0,0.0025,0.0,0.0,0.0,0.0025,0.01,-0.05,-0.01,0.02,0.0,0.0,0.0,0.02,0.0,0.0,0.0,0.02,-1.9010616406249998,0.090782109375,9.6573778125,0.04,0.0,0.0,0.0,0.04,0.0,0.0,0.0,0.04
1614383754.8646102,70,1614383754,863900899,base_imu_link,0.06713976182579195,0.06639494762314774,-0.66850579060125,0.7376882615608662,0.0025,0.0,0.0,0.0,0.0025,0.0,0.0,0.0,0.0025,0.01,-0.05,-0.01,0.02,0.0,0.0,0.0,0.02,0.0,0.0,0.0,0.02,-1.8960820312499997,0.08618554687499999,9.6573778125,0.04,0.0,0.0,0.0,0.04,0.0,0.0,0.0,0.04
1614383754.8849785,71,1614383754,883738994,base_imu_link,0.06709857861081628,0.06642986773104495,-0.6687574570955493,0.7374607223444097,0.0025,0.0,0.0,0.0,0.0025,0.0,0.0,0.0,0.0025,0.01,-0.05,-0.01,0.02,0.0,0.0,0.0,0.02,0.0,0.0,0.0,0.02,-1.89148546875,0.09576171874999999,9.6573778125,0.04,0.0,0.0,0.0,0.04,0.0,0.0,0.0,0.04
1614383754.9050047,72,1614383754,904088973,base_imu_link,0.06710437545488435,0.06642401202250534,-0.6688218101375734,0.7374023594388235,0.0025,0.0,0.0,0.0,0.0025,0.0,0.0,0.0,0.0025,0.01,-0.05,-0.01,0.02,0.0,0.0,0.0,0.02,0.0,0.0,0.0,0.02,-1.886505859375,0.08618554687499999,9.662357421874999,0.04,0.0,0.0,0.0,0.04,0.0,0.0,0.0,0.04
1614383754.9252071,73,1614383754,924417018,base_imu_link,0.0670344893124115,0.06637130512197029,-0.6686982883150058,0.7375254750200918,0.0025,0.0,0.0,0.0,0.0025,0.0,0.0,0.0,0.0025,0.01,-0.05,-0.01,0.02,0.0,0.0,0.0,0.02,0.0,0.0,0.0,0.02,-1.8960820312499997,0.08618554687499999,9.662357421874999,0.04,0.0,0.0,0.0,0.04,0.0,0.0,0.0,0.04
1614383754.9455311,74,1614383754,944674968,base_imu_link,0.06697012781796259,0.06642965980334076,-0.6686924937797827,0.73753132207455,0.0025,0.0,0.0,0.0,0.0025,0.0,0.0,0.0,0.0025,0.01,-0.05,-0.01,0.02,0.0,0.0,0.0,0.02,0.0,0.0,0.0,0.02,-1.9056582031249998,0.090782109375,9.67193359375,0.04,0.0,0.0,0.0,0.04,0.0,0.0,0.0,0.04
1614383754.9649508,75,1614383754,964046955,base_imu_link,0.06697012781796259,0.06642965980334076,-0.6686924937797827,0.73753132207455,0.0025,0.0,0.0,0.0,0.0025,0.0,0.0,0.0,0.0025,0.01,-0.05,-0.01,0.02,0.0,0.0,0.0,0.02,0.0,0.0,0.0,0.02,-1.8960820312499997,0.09576171874999999,9.662357421874999,0.04,0.0,0.0,0.0,0.04,0.0,0.0,0.0,0.04
1614383754.985701,76,1614383754,984817981,base_imu_link,0.06697012781796259,0.06642965980334076,-0.6686924937797827,0.73753132207455,0.0025,0.0,0.0,0.0,0.0025,0.0,0.0,0.0,0.0025,0.01,-0.05,-0.01,0.02,0.0,0.0,0.0,0.02,0.0,0.0,0.0,0.02,-1.8960820312499997,0.08618554687499999,9.6573778125,0.04,0.0,0.0,0.0,0.04,0.0,0.0,0.0,0.04
1614383755.0050602,77,1614383755,4112958,base_imu_link,0.06698172096073585,0.06641797029930947,-0.6688212070934278,0.7374146019848997,0.0025,0.0,0.0,0.0,0.0025,0.0,0.0,0.0,0.0025,0.01,-0.05,-0.01,0.02,0.0,0.0,0.0,0.02,0.0,0.0,0.0,0.02,-1.9010616406249998,0.090782109375,9.662357421874999,0.04,0.0,0.0,0.0,0.04,0.0,0.0,0.0,0.04
1614383755.0250309,78,1614383755,24127960,base_imu_link,0.06702842031919522,0.06649407716196074,-0.6686872988039283,0.7375249317753254,0.0025,0.0,0.0,0.0,0.0025,0.0,0.0,0.0,0.0025,0.01,-0.05,-0.01,0.02,0.0,0.0,0.0,0.02,0.0,0.0,0.0,0.02,-1.8960820312499997,0.090782109375,9.662357421874999,0.04,0.0,0.0,0.0,0.04,0.0,0.0,0.0,0.04
1614383755.0449958,79,1614383755,44209957,base_imu_link,0.06702842031919522,0.06649407716196074,-0.6686872988039283,0.7375249317753254,0.0025,0.0,0.0,0.0,0.0025,0.0,0.0,0.0,0.0025,0.01,-0.05,-0.01,0.02,0.0,0.0,0.0,0.02,0.0,0.0,0.0,0.02,-1.9056582031249998,0.090782109375,9.67193359375,0.04,0.0,0.0,0.0,0.04,0.0,0.0,0.0,0.04
1614383755.0658646,80,1614383755,65048933,base_imu_link,0.0670458261306619,0.06647652688404038,-0.6688803594617958,0.7373498445772884,0.0025,0.0,0.0,0.0,0.0025,0.0,0.0,0.0,0.0025,0.01,-0.05,-0.01,0.02,0.0,0.0,0.0,0.02,0.0,0.0,0.0,0.02,-1.9056582031249998,0.09576171874999999,9.662357421874999,0.04,0.0,0.0,0.0,0.04,0.0,0.0,0.0,0.04
1614383755.0851722,81,1614383755,84337949,base_imu_link,0.06708671230997722,0.06655849401419935,-0.668682098735729,0.7375185358595272,0.0025,0.0,0.0,0.0,0.0025,0.0,0.0,0.0,0.0025,0.01,-0.05,-0.01,0.02,0.0,0.0,0.0,0.02,0.0,0.0,0.0,0.02,-1.9010616406249998,0.09576171874999999,9.652781249999999,0.04,0.0,0.0,0.0,0.04,0.0,0.0,0.0,0.04
1614383755.1053019,82,1614383755,104281902,base_imu_link,0.06712205013678156,0.06652943409106968,-0.6683660402568068,0.7378043785559923,0.0025,0.0,0.0,0.0,0.0025,0.0,0.0,0.0,0.0025,0.01,-0.05,-0.01,0.02,0.0,0.0,0.0,0.02,0.0,0.0,0.0,0.02,-1.8960820312499997,0.08618554687499999,9.6573778125,0.04,0.0,0.0,0.0,0.04,0.0,0.0,0.0,0.04
1614383755.1254888,83,1614383755,124598979,base_imu_link,0.06708671230997722,0.06655849401419935,-0.668682098735729,0.7375185358595272,0.0025,0.0,0.0,0.0,0.0025,0.0,0.0,0.0,0.0025,0.01,-0.05,-0.01,0.02,0.0,0.0,0.0,0.02,0.0,0.0,0.0,0.02,-1.89148546875,0.09576171874999999,9.652781249999999,0.04,0.0,0.0,0.0,0.04,0.0,0.0,0.0,0.04
1614383755.1460052,84,1614383755,145040035,base_imu_link,0.06714526920048838,0.06650600002282911,-0.6686235418452179,0.7375710298508975,0.0025,0.0,0.0,0.0,0.0025,0.0,0.0,0.0,0.0025,0.01,-0.05,-0.01,0.02,0.0,0.0,0.0,0.02,0.0,0.0,0.0,0.02,-1.886505859375,0.090782109375,9.6573778125,0.04,0.0,0.0,0.0,0.04,0.0,0.0,0.0,0.04
1614383755.1654,85,1614383755,164652109,base_imu_link,0.06702261736107952,0.06649992624189754,-0.6686229350659624,0.7375832829421166,0.0025,0.0,0.0,0.0,0.0025,0.0,0.0,0.0,0.0025,0.01,-0.05,-0.01,0.02,0.0,0.0,0.0,0.02,0.0,0.0,0.0,0.02,-1.9010616406249998,0.08618554687499999,9.6573778125,0.04,0.0,0.0,0.0,0.04,0.0,0.0,0.0,0.04
1614383755.1863048,86,1614383755,185075998,base_imu_link,0.06706928503816513,0.06657605499328731,-0.668488993921382,0.7376935711472472,0.0025,0.0,0.0,0.0,0.0025,0.0,0.0,0.0,0.0025,0.01,-0.05,-0.01,0.02,0.0,0.0,0.0,0.02,0.0,0.0,0.0,0.02,-1.8960820312499997,0.08618554687499999,9.662357421874999,0.04,0.0,0.0,0.0,0.04,0.0,0.0,0.0,0.04
1614383755.2053983,87,1614383755,204539060,base_imu_link,0.06701100991367306,0.0665116228824489,-0.6684941923149562,0.7376999684242007,0.0025,0.0,0.0,0.0,0.0025,0.0,0.0,0.0,0.0025,0.01,-0.05,-0.01,0.02,0.0,0.0,0.0,0.02,0.0,0.0,0.0,0.02,-1.9010616406249998,0.08618554687499999,9.652781249999999,0.04,0.0,0.0,0.0,0.04,0.0,0.0,0.0,0.04
1614383755.2255046,88,1614383755,224662065,base_imu_link,0.06701653774907879,0.06662269583190779,-0.6686119241748306,0.7375827376772358,0.0025,0.0,0.0,0.0,0.0025,0.0,0.0,0.0,0.0025,0.01,-0.05,-0.01,0.02,0.0,0.0,0.0,0.02,0.0,0.0,0.0,0.02,-1.8960820312499997,0.090782109375,9.662357421874999,0.04,0.0,0.0,0.0,0.04,0.0,0.0,0.0,0.04
1614383755.2454472,89,1614383755,244527101,base_imu_link,0.06710413498373853,0.06654092847326415,-0.6688751577193278,0.7373434500230841,0.0025,0.0,0.0,0.0,0.0025,0.0,0.0,0.0,0.0025,0.01,-0.05,-0.01,0.02,0.0,0.0,0.0,0.02,0.0,0.0,0.0,0.02,-1.8960820312499997,0.09576171874999999,9.662357421874999,0.04,0.0,0.0,0.0,0.04,0.0,0.0,0.0,0.04
1614383755.2656581,90,1614383755,264894962,base_imu_link,0.06710994151966351,0.06653507227941667,-0.6689395005269628,0.7372850768466275,0.0025,0.0,0.0,0.0,0.0025,0.0,0.0,0.0,0.0025,0.01,-0.05,-0.01,0.02,0.0,0.0,0.0,0.02,0.0,0.0,0.0,0.02,-1.89148546875,0.090782109375,9.66733703125,0.04,0.0,0.0,0.0,0.04,0.0,0.0,0.0,0.04
1614383755.2855296,91,1614383755,284746885,base_imu_link,0.0670458261306619,0.06647652688404038,-0.6688803594617958,0.7373498445772884,0.0025,0.0,0.0,0.0,0.0025,0.0,0.0,0.0,0.0025,0.01,-0.05,-0.01,0.02,0.0,0.0,0.0,0.02,0.0,0.0,0.0,0.02,-1.8960820312499997,0.10074132812499999,9.662357421874999,0.04,0.0,0.0,0.0,0.04,0.0,0.0,0.0,0.04
1614383755.3057835,92,1614383755,304888963,base_imu_link,0.06703422276686029,0.06648822757564259,-0.6687516574495491,0.7374665749919608,0.0025,0.0,0.0,0.0,0.0025,0.0,0.0,0.0,0.0025,0.01,-0.05,-0.01,0.02,0.0,0.0,0.0,0.02,0.0,0.0,0.0,0.02,-1.886505859375,0.08618554687499999,9.66733703125,0.04,0.0,0.0,0.0,0.04,0.0,0.0,0.0,0.04
1614383755.3263872,93,1614383755,325252056,base_imu_link,0.06696433048154386,0.06643550379654248,-0.6686281294841381,0.7375896736946639,0.0025,0.0,0.0,0.0,0.0025,0.0,0.0,0.0,0.0025,0.01,-0.05,-0.01,0.02,0.0,0.0,0.0,0.02,0.0,0.0,0.0,0.02,-1.9010616406249998,0.08618554687499999,9.662357421874999,0.04,0.0,0.0,0.0,0.04,0.0,0.0,0.0,0.04
1614383755.3456957,94,1614383755,344736099,base_imu_link,0.06703422276686029,0.06648822757564259,-0.6687516574495491,0.7374665749919608,0.0025,0.0,0.0,0.0,0.0025,0.0,0.0,0.0,0.0025,0.01,-0.05,-0.01,0.02,0.0,0.0,0.0,0.02,0.0,0.0,0.0,0.02,-1.9010616406249998,0.090782109375,9.6573778125,0.04,0.0,0.0,0.0,0.04,0.0,0.0,0.0,0.04
1614383755.3656454,95,1614383755,364933967,base_imu_link,0.06705162704671001,0.06647067577884547,-0.668944702827441,0.7372914709468698,0.0025,0.0,0.0,0.0,0.0025,0.0,0.0,0.0,0.0025,0.01,-0.05,-0.01,0.02,0.0,0.0,0.0,0.02,0.0,0.0,0.0,0.02,-1.8960820312499997,0.09576171874999999,9.6573778125,0.04,0.0,0.0,0.0,0.04,0.0,0.0,0.0,0.04
1614383755.386195,96,1614383755,385314941,base_imu_link,0.06701681389255738,0.06650577481540844,-0.6685585662361415,0.7376416284918897,0.0025,0.0,0.0,0.0,0.0025,0.0,0.0,0.0,0.0025,0.01,-0.05,-0.01,0.02,0.0,0.0,0.0,0.02,0.0,0.0,0.0,0.02,-1.89148546875,0.090782109375,9.652781249999999,0.04,0.0,0.0,0.0,0.04,0.0,0.0,0.0,0.04
1614383755.4062479,97,1614383755,405189037,base_imu_link,0.06700520542447068,0.0665174704429744,-0.6684298133028964,0.7377583027386054,0.0025,0.0,0.0,0.0,0.0025,0.0,0.0,0.0,0.0025,0.01,-0.05,-0.01,0.02,0.0,0.0,0.0,0.02,0.0,0.0,0.0,0.02,-1.886505859375,0.09576171874999999,9.652781249999999,0.04,0.0,0.0,0.0,0.04,0.0,0.0,0.0,0.04
1614383755.4264746,98,1614383755,425724983,base_imu_link,0.06703422276686029,0.06648822757564259,-0.6687516574495491,0.7374665749919608,0.0025,0.0,0.0,0.0,0.0025,0.0,0.0,0.0,0.0025,0.01,-0.05,-0.01,0.02,0.0,0.0,0.0,0.02,0.0,0.0,0.0,0.02,-1.9010616406249998,0.09576171874999999,9.6573778125,0.04,0.0,0.0,0.0,0.04,0.0,0.0,0.0,0.04
1614383755.4459577,99,1614383755,445005893,base_imu_link,0.06706958672658564,0.06645913868446555,-0.6684356155020437,0.7377524526221841,0.0025,0.0,0.0,0.0,0.0025,0.0,0.0,0.0,0.0025,0.01,-0.05,-0.01,0.02,0.0,0.0,0.0,0.02,0.0,0.0,0.0,0.02,-1.89148546875,0.090782109375,9.662357421874999,0.04,0.0,0.0,0.0,0.04,0.0,0.0,0.0,0.04
1614383755.4662046,100,1614383755,465519905,base_imu_link,0.06708118501287935,0.06644743182113111,-0.6685643674141625,0.737635777362883,0.0025,0.0,0.0,0.0,0.0025,0.0,0.0,0.0,0.0025,0.01,-0.05,-0.01,0.02,0.0,0.0,0.0,0.02,0.0,0.0,0.0,0.02,-1.89148546875,0.08618554687499999,9.6573778125,0.04,0.0,0.0,0.0,0.04,0.0,0.0,0.0,0.04
1614383755.4857895,101,1614383755,485132932,base_imu_link,0.06703422276686029,0.06648822757564259,-0.6687516574495491,0.7374665749919608,0.0025,0.0,0.0,0.0,0.0025,0.0,0.0,0.0,0.0025,0.01,-0.05,-0.01,0.02,0.0,0.0,0.0,0.02,0.0,0.0,0.0,0.02,-1.881909296875,0.090782109375,9.662357421874999,0.04,0.0,0.0,0.0,0.04,0.0,0.0,0.0,0.04
1614383755.5061398,102,1614383755,505224943,base_imu_link,0.06704607226939129,0.06635960438562796,-0.6688270006080592,0.7374087539191935,0.0025,0.0,0.0,0.0,0.0025,0.0,0.0,0.0,0.0025,0.01,-0.05,-0.01,0.02,0.0,0.0,0.0,0.02,0.0,0.0,0.0,0.02,-1.8960820312499997,0.090782109375,9.652781249999999,0.04,0.0,0.0,0.0,0.04,0.0,0.0,0.0,0.04
1614383755.5258467,103,1614383755,525132894,base_imu_link,0.0670171110483259,0.06638885243552448,-0.6685051816834359,0.7377005145459957,0.0025,0.0,0.0,0.0,0.0025,0.0,0.0,0.0,0.0025,0.01,-0.05,-0.01,0.02,0.0,0.0,0.0,0.02,0.0,0.0,0.0,0.02,-1.8960820312499997,0.090782109375,9.6573778125,0.04,0.0,0.0,0.0,0.04,0.0,0.0,0.0,0.04
1614383755.5462322,104,1614383755,545299053,base_imu_link,0.0670344893124115,0.06637130512197029,-0.6686982883150058,0.7375254750200918,0.0025,0.0,0.0,0.0,0.0025,0.0,0.0,0.0,0.0025,0.01,-0.05,-0.01,0.02,0.0,0.0,0.0,0.02,0.0,0.0,0.0,0.02,-1.9010616406249998,0.09576171874999999,9.6573778125,0.04,0.0,0.0,0.0,0.04,0.0,0.0,0.0,0.04
1614383755.5658343,105,1614383755,565165042,base_imu_link,0.06707538612513664,0.06645328550583368,-0.6684999940035624,0.7376941178014644,0.0025,0.0,0.0,0.0,0.0025,0.0,0.0,0.0,0.0025,0.01,-0.05,-0.01,0.02,0.0,0.0,0.0,0.02,0.0,0.0,0.0,0.02,-1.89148546875,0.08618554687499999,9.662357421874999,0.04,0.0,0.0,0.0,0.04,0.0,0.0,0.0,0.04
1614383755.5861008,106,1614383755,585355043,base_imu_link,0.06698172096073585,0.06641797029930947,-0.6688212070934278,0.7374146019848997,0.0025,0.0,0.0,0.0,0.0025,0.0,0.0,0.0,0.0025,0.01,-0.05,-0.01,0.02,0.0,0.0,0.0,0.02,0.0,0.0,0.0,0.02,-1.8960820312499997,0.090782109375,9.662357421874999,0.04,0.0,0.0,0.0,0.04,0.0,0.0,0.0,0.04
1614383755.6061666,107,1614383755,605389118,base_imu_link,0.06695273427886295,0.06644719026509552,-0.6684993856176561,0.7377063600832477,0.0025,0.0,0.0,0.0,0.0025,0.0,0.0,0.0,0.0025,0.01,-0.05,-0.01,0.02,0.0,0.0,0.0,0.02,0.0,0.0,0.0,0.02,-1.8960820312499997,0.08618554687499999,9.662357421874999,0.04,0.0,0.0,0.0,0.04,0.0,0.0,0.0,0.04
1614383755.6264625,108,1614383755,625744104,base_imu_link,0.06695273427886295,0.06644719026509552,-0.6684993856176561,0.7377063600832477,0.0025,0.0,0.0,0.0,0.0025,0.0,0.0,0.0,0.0025,0.01,-0.05,-0.01,0.02,0.0,0.0,0.0,0.02,0.0,0.0,0.0,0.02,-1.8960820312499997,0.08618554687499999,9.662357421874999,0.04,0.0,0.0,0.0,0.04,0.0,0.0,0.0,0.04
1614383755.646352,109,1614383755,645652055,base_imu_link,0.06694113603668513,0.06645887470955139,-0.6683706213875185,0.7378230240000109,0.0025,0.0,0.0,0.0,0.0025,0.0,0.0,0.0,0.0025,0.01,-0.05,-0.01,0.02,0.0,0.0,0.0,0.02,0.0,0.0,0.0,0.02,-1.8960820312499997,0.08120593749999999,9.662357421874999,0.04,0.0,0.0,0.0,0.04,0.0,0.0,0.0,0.04
1614383755.6662097,110,1614383755,665397882,base_imu_link,0.06685933212246711,0.06653470680838161,-0.6681716331647507,0.7380038151202271,0.0025,0.0,0.0,0.0,0.0025,0.0,0.0,0.0,0.0025,0.01,-0.05,-0.01,0.02,0.0,0.0,0.0,0.02,0.0,0.0,0.0,0.02,-1.881909296875,0.08618554687499999,9.662357421874999,0.04,0.0,0.0,0.0,0.04,0.0,0.0,0.0,0.04
1614383755.6862717,111,1614383755,685420036,base_imu_link,0.06685352561938974,0.06654054113243493,-0.6681072276382928,0.7380621212848787,0.0025,0.0,0.0,0.0,0.0025,0.0,0.0,0.0,0.0025,0.01,-0.05,-0.01,0.02,0.0,0.0,0.0,0.02,0.0,0.0,0.0,0.02,-1.881909296875,0.090782109375,9.662357421874999,0.04,0.0,0.0,0.0,0.04,0.0,0.0,0.0,0.04
1614383755.7062888,112,1614383755,705517053,base_imu_link,0.06679528266249432,0.0664760779572835,-0.6681124181311374,0.7380685049590038,0.0025,0.0,0.0,0.0,0.0025,0.0,0.0,0.0,0.0025,0.01,-0.05,-0.01,0.02,0.0,0.0,0.0,0.02,0.0,0.0,0.0,0.02,-1.881909296875,0.090782109375,9.652781249999999,0.04,0.0,0.0,0.0,0.04,0.0,0.0,0.0,0.04
1614383755.7269258,113,1614383755,725852966,base_imu_link,0.06680688390942674,0.06646441896878151,-0.6682412252097174,0.7379518861034711,0.0025,0.0,0.0,0.0,0.0025,0.0,0.0,0.0,0.0025,0.01,-0.05,-0.01,0.02,0.0,0.0,0.0,0.02,0.0,0.0,0.0,0.02,-1.89148546875,0.08120593749999999,9.652781249999999,0.04,0.0,0.0,0.0,0.04,0.0,0.0,0.0,0.04
1614383755.7464216,114,1614383755,745595932,base_imu_link,0.06683587812262345,0.06643526264058243,-0.6685631538409972,0.7376602406254751,0.0025,0.0,0.0,0.0,0.0025,0.0,0.0,0.0,0.0025,0.01,-0.05,-0.01,0.02,0.0,0.0,0.0,0.02,0.0,0.0,0.0,0.02,-1.886505859375,0.090782109375,9.652781249999999,0.04,0.0,0.0,0.0,0.04,0.0,0.0,0.0,0.04
1614383755.766164,115,1614383755,765448093,base_imu_link,0.06685326854308292,0.06641776277210626,-0.6687562499268926,0.737485185923876,0.0025,0.0,0.0,0.0,0.0025,0.0,0.0,0.0,0.0025,0.01,-0.05,-0.01,0.02,0.0,0.0,0.0,0.02,0.0,0.0,0.0,0.02,-1.89148546875,0.090782109375,9.652781249999999,0.04,0.0,0.0,0.0,0.04,0.0,0.0,0.0,0.04
1614383755.7869577,116,1614383755,786154985,base_imu_link,0.06684747224532102,0.06642359656745775,-0.6686918896571441,0.7375435431079391,0.0025,0.0,0.0,0.0,0.0025,0.0,0.0,0.0,0.0025,0.01,-0.05,-0.01,0.02,0.0,0.0,0.0,0.02,0.0,0.0,0.0,0.02,-1.8960820312499997,0.08618554687499999,9.648184687499999,0.04,0.0,0.0,0.0,0.04,0.0,0.0,0.0,0.04
1614383755.8068628,117,1614383755,806154012,base_imu_link,0.06684167543848646,0.06642942985696461,-0.6686275242950155,0.7376018946752869,0.0025,0.0,0.0,0.0,0.0025,0.0,0.0,0.0,0.0025,0.01,-0.05,-0.01,0.02,0.0,0.0,0.0,0.02,0.0,0.0,0.0,0.02,-1.9010616406249998,0.08618554687499999,9.652781249999999,0.04,0.0,0.0,0.0,0.04,0.0,0.0,0.0,0.04
1614383755.8268573,118,1614383755,825876951,base_imu_link,0.06680108354032022,0.06647024871613244,-0.6681768242146562,0.7380101983413719,0.0025,0.0,0.0,0.0,0.0025,0.0,0.0,0.0,0.0025,0.01,-0.05,-0.01,0.02,0.0,0.0,0.0,0.02,0.0,0.0,0.0,0.02,-1.8960820312499997,0.09576171874999999,9.648184687499999,0.04,0.0,0.0,0.0,0.04,0.0,0.0,0.0,0.04
1614383755.8478043,119,1614383755,847007036,base_imu_link,0.06684771860719366,0.06654637494975306,-0.6680428170239073,0.7381204218288656,0.0025,0.0,0.0,0.0,0.0025,0.0,0.0,0.0,0.0025,0.01,-0.05,-0.01,0.02,0.0,0.0,0.0,0.02,0.0,0.0,0.0,0.02,-1.8960820312499997,0.08618554687499999,9.6573778125,0.04,0.0,0.0,0.0,0.04,0.0,0.0,0.0,0.04
1614383755.866656,120,1614383755,865838050,base_imu_link,0.06683610305562224,0.066558041064006,-0.6679139805333162,0.7382370060530704,0.0025,0.0,0.0,0.0,0.0025,0.0,0.0,0.0,0.0025,0.01,-0.05,-0.01,0.02,0.0,0.0,0.0,0.02,0.0,0.0,0.0,0.02,-1.8960820312499997,0.08618554687499999,9.662357421874999,0.04,0.0,0.0,0.0,0.04,0.0,0.0,0.0,0.04
1614383755.8867528,121,1614383755,886077880,base_imu_link,0.06683029451633536,0.06656387336085198,-0.6678495546580916,0.7382952897324003,0.0025,0.0,0.0,0.0,0.0025,0.0,0.0,0.0,0.0025,0.01,-0.05,-0.01,0.02,0.0,0.0,0.0,0.02,0.0,0.0,0.0,0.02,-1.89148546875,0.10074132812499999,9.662357421874999,0.04,0.0,0.0,0.0,0.04,0.0,0.0,0.0,0.04
1614383755.906819,122,1614383755,906089067,base_imu_link,0.06686513811638155,0.06652887197763753,-0.6682360336027905,0.737945503335355,0.0025,0.0,0.0,0.0,0.0025,0.0,0.0,0.0,0.0025,0.01,-0.05,-0.01,0.02,0.0,0.0,0.0,0.02,0.0,0.0,0.0,0.02,-1.886505859375,0.08618554687499999,9.652781249999999,0.04,0.0,0.0,0.0,0.04,0.0,0.0,0.0,0.04
1614383755.9269388,123,1614383755,926181077,base_imu_link,0.06680688390942674,0.06646441896878151,-0.6682412252097174,0.7379518861034711,0.0025,0.0,0.0,0.0,0.0025,0.0,0.0,0.0,0.0025,0.01,-0.05,-0.01,0.02,0.0,0.0,0.0,0.02,0.0,0.0,0.0,0.02,-1.881909296875,0.08120593749999999,9.652781249999999,0.04,0.0,0.0,0.0,0.04,0.0,0.0,0.0,0.04
1614383755.9466863,124,1614383755,946010112,base_imu_link,0.06679528266249432,0.0664760779572835,-0.6681124181311374,0.7380685049590038,0.0025,0.0,0.0,0.0,0.0025,0.0,0.0,0.0,0.0025,0.01,-0.05,-0.01,0.02,0.0,0.0,0.0,0.02,0.0,0.0,0.0,0.02,-1.89148546875,0.08120593749999999,9.652781249999999,0.04,0.0,0.0,0.0,0.04,0.0,0.0,0.0,0.04
1614383755.966869,125,1614383755,966171026,base_imu_link,0.06672506730645372,0.06654020462538608,-0.6680422027750967,0.7381326316271063,0.0025,0.0,0.0,0.0,0.0025,0.0,0.0,0.0,0.0025,0.01,-0.05,-0.01,0.02,0.0,0.0,0.0,0.02,0.0,0.0,0.0,0.02,-1.886505859375,0.076609375,9.648184687499999,0.04,0.0,0.0,0.0,0.04,0.0,0.0,0.0,0.04
1614383755.9876776,126,1614383755,986682891,base_imu_link,0.06674248520445768,0.06652273376351708,-0.6682354225505186,0.7379577132939873,0.0025,0.0,0.0,0.0,0.0025,0.0,0.0,0.0,0.0025,0.01,-0.05,-0.01,0.02,0.0,0.0,0.0,0.02,0.0,0.0,0.0,0.02,-1.886505859375,0.076609375,9.6573778125,0.04,0.0,0.0,0.0,0.04,0.0,0.0,0.0,0.04
1614383756.00695,127,1614383756,6228923,base_imu_link,0.06660821981276611,0.06652822178351138,-0.668106002346754,0.7380865195815035,0.0025,0.0,0.0,0.0,0.0025,0.0,0.0,0.0,0.0025,0.01,-0.05,-0.01,0.02,0.0,0.0,0.0,0.02,0.0,0.0,0.0,0.02,-1.89148546875,0.08120593749999999,9.6573778125,0.04,0.0,0.0,0.0,0.04,0.0,0.0,0.0,0.04
1614383756.0270777,128,1614383756,26335000,base_imu_link,0.06660821981276611,0.06652822178351138,-0.668106002346754,0.7380865195815035,0.0025,0.0,0.0,0.0,0.0025,0.0,0.0,0.0,0.0025,0.01,-0.05,-0.01,0.02,0.0,0.0,0.0,0.02,0.0,0.0,0.0,0.02,-1.8769296874999999,0.08618554687499999,9.6573778125,0.04,0.0,0.0,0.0,0.04,0.0,0.0,0.0,0.04
1614383756.0474193,129,1614383756,46822071,base_imu_link,0.06659080048260309,0.06654565749459536,-0.6679127488543605,0.7382614040280787,0.0025,0.0,0.0,0.0,0.0025,0.0,0.0,0.0,0.0025,0.01,-0.05,-0.01,0.02,0.0,0.0,0.0,0.02,0.0,0.0,0.0,0.02,-1.8769296874999999,0.076609375,9.6573778125,0.04,0.0,0.0,0.0,0.04,0.0,0.0,0.0,0.04
1614383756.0671427,130,1614383756,66495895,base_imu_link,0.06642748696069345,0.06658005621135836,-0.6674610243853888,0.7386814374392974,0.0025,0.0,0.0,0.0,0.0025,0.0,0.0,0.0,0.0025,0.01,-0.05,-0.01,0.02,0.0,0.0,0.0,0.02,0.0,0.0,0.0,0.02,-1.881909296875,0.08618554687499999,9.652781249999999,0.04,0.0,0.0,0.0,0.04,0.0,0.0,0.0,0.04
1614383756.0872312,131,1614383756,86437940,base_imu_link,0.0664332969137342,0.06657425906604121,-0.6675254839598372,0.7386231876641598,0.0025,0.0,0.0,0.0,0.0025,0.0,0.0,0.0,0.0025,0.01,-0.05,-0.01,0.02,0.0,0.0,0.0,0.02,0.0,0.0,0.0,0.02,-1.886505859375,0.090782109375,9.648184687499999,0.04,0.0,0.0,0.0,0.04,0.0,0.0,0.0,0.04
1614383756.1073544,132,1614383756,106626033,base_imu_link,0.0665035580568322,0.06651020294793634,-0.6675957451029352,0.7385591315460548,0.0025,0.0,0.0,0.0,0.0025,0.0,0.0,0.0,0.0025,0.01,-0.05,-0.01,0.02,0.0,0.0,0.0,0.02,0.0,0.0,0.0,0.02,-1.881909296875,0.08618554687499999,9.662357421874999,0.04,0.0,0.0,0.0,0.04,0.0,0.0,0.0,0.04
1614383756.1273704,133,1614383756,126722097,base_imu_link,0.0665035580568322,0.06651020294793634,-0.6675957451029352,0.7385591315460548,0.0025,0.0,0.0,0.0,0.0025,0.0,0.0,0.0,0.0025,0.01,-0.05,-0.01,0.02,0.0,0.0,0.0,0.02,0.0,0.0,0.0,0.02,-1.886505859375,0.08120593749999999,9.652781249999999,0.04,0.0,0.0,0.0,0.04,0.0,0.0,0.0,0.04
1614383756.1473286,134,1614383756,146610021,base_imu_link,0.06641586553703345,0.06659164898084016,-0.6673320899879639,0.738797920112987,0.0025,0.0,0.0,0.0,0.0025,0.0,0.0,0.0,0.0025,0.01,-0.05,-0.01,0.02,0.0,0.0,0.0,0.02,0.0,0.0,0.0,0.02,-1.881909296875,0.090782109375,9.652781249999999,0.04,0.0,0.0,0.0,0.04,0.0,0.0,0.0,0.04
1614383756.1673317,135,1614383756,166529893,base_imu_link,0.06638734737951842,0.06650365771740593,-0.6669561530433981,0.7391478022260964,0.0025,0.0,0.0,0.0,0.0025,0.0,0.0,0.0,0.0025,0.01,-0.05,-0.01,0.02,0.0,0.0,0.0,0.02,0.0,0.0,0.0,0.02,-1.89148546875,0.08618554687499999,9.652781249999999,0.04,0.0,0.0,0.0,0.04,0.0,0.0,0.0,0.04
1614383756.187305,136,1614383756,186698913,base_imu_link,0.06638680312740759,0.06662062202909522,-0.6670096650675662,0.7390890283297626,0.0025,0.0,0.0,0.0,0.0025,0.0,0.0,0.0,0.0025,0.01,-0.05,-0.01,0.02,0.0,0.0,0.0,0.02,0.0,0.0,0.0,0.02,-1.886505859375,0.090782109375,9.652781249999999,0.04,0.0,0.0,0.0,0.04,0.0,0.0,0.0,0.04
1614383756.2074277,137,1614383756,206778049,base_imu_link,0.06645710897298641,0.06655661497812777,-0.6670799709131451,0.7390250212787952,0.0025,0.0,0.0,0.0,0.0025,0.0,0.0,0.0,0.0025,0.01,-0.05,-0.01,0.02,0.0,0.0,0.0,0.02,0.0,0.0,0.0,0.02,-1.89148546875,0.08120593749999999,9.652781249999999,0.04,0.0,0.0,0.0,0.04,0.0,0.0,0.0,0.04
1614383756.2274563,138,1614383756,226814031,base_imu_link,0.06637517462429643,0.06663220769729074,-0.6668806595389857,0.7392054322201824,0.0025,0.0,0.0,0.0,0.0025,0.0,0.0,0.0,0.0025,0.01,-0.05,-0.01,0.02,0.0,0.0,0.0,0.02,0.0,0.0,0.0,0.02,-1.89148546875,0.090782109375,9.648184687499999,0.04,0.0,0.0,0.0,0.04,0.0,0.0,0.0,0.04
1614383756.2480252,139,1614383756,247484922,base_imu_link,0.06650944994744291,0.06662696382089185,-0.6670102941502023,0.739076862212151,0.0025,0.0,0.0,0.0,0.0025,0.0,0.0,0.0,0.0025,0.01,-0.05,-0.01,0.02,0.0,0.0,0.0,0.02,0.0,0.0,0.0,0.02,-1.881909296875,0.076609375,9.6573778125,0.04,0.0,0.0,0.0,0.04,0.0,0.0,0.0,0.04
1614383756.2677042,140,1614383756,266746997,base_imu_link,0.06638098912861207,0.06662641511688755,-0.6669451648428149,0.7391472330894365,0.0025,0.0,0.0,0.0,0.0025,0.0,0.0,0.0,0.0025,0.01,-0.05,-0.01,0.02,0.0,0.0,0.0,0.02,0.0,0.0,0.0,0.02,-1.886505859375,0.09576171874999999,9.6573778125,0.04,0.0,0.0,0.0,0.04,0.0,0.0,0.0,0.04
1614383756.287572,141,1614383756,286902904,base_imu_link,0.06646291688028086,0.06655081524789166,-0.6671444604723905,0.7389668047555377,0.0025,0.0,0.0,0.0,0.0025,0.0,0.0,0.0,0.0025,0.01,-0.05,-0.01,0.02,0.0,0.0,0.0,0.02,0.0,0.0,0.0,0.02,-1.9010616406249998,0.10074132812499999,9.662357421874999,0.04,0.0,0.0,0.0,0.04,0.0,0.0,0.0,0.04
1614383756.3080676,142,1614383756,307302951,base_imu_link,0.06660298607842695,0.06653970123844483,-0.667338522987449,0.7387799443281237,0.0025,0.0,0.0,0.0,0.0025,0.0,0.0,0.0,0.0025,0.01,-0.05,-0.01,0.02,0.0,0.0,0.0,0.02,0.0,0.0,0.0,0.02,-1.89148546875,0.09576171874999999,9.662357421874999,0.04,0.0,0.0,0.0,0.04,0.0,0.0,0.0,0.04
1614383756.3280551,143,1614383756,327246904,base_imu_link,0.06662620875766742,0.06651644835711201,-0.6675963651751489,0.738546954234776,0.0025,0.0,0.0,0.0,0.0025,0.0,0.0,0.0,0.0025,0.01,-0.05,-0.01,0.02,0.0,0.0,0.0,0.02,0.0,0.0,0.0,0.02,-1.89148546875,0.08120593749999999,9.66733703125,0.04,0.0,0.0,0.0,0.04,0.0,0.0,0.0,0.04
1614383756.3477323,144,1614383756,346997976,base_imu_link,0.06664362043968282,0.0664990033771644,-0.6677896934352533,0.7383721526074679,0.0025,0.0,0.0,0.0,0.0025,0.0,0.0,0.0,0.0025,0.01,-0.05,-0.01,0.02,0.0,0.0,0.0,0.02,0.0,0.0,0.0,0.02,-1.886505859375,0.090782109375,9.648184687499999,0.04,0.0,0.0,0.0,0.04,0.0,0.0,0.0,0.04
1614383756.3676865,145,1614383756,367017984,base_imu_link,0.06662620875766742,0.06651644835711201,-0.6675963651751489,0.738546954234776,0.0025,0.0,0.0,0.0,0.0025,0.0,0.0,0.0,0.0025,0.01,-0.05,-0.01,0.02,0.0,0.0,0.0,0.02,0.0,0.0,0.0,0.02,-1.886505859375,0.08618554687499999,9.652781249999999,0.04,0.0,0.0,0.0,0.04,0.0,0.0,0.0,0.04
1614383756.3880155,146,1614383756,387243032,base_imu_link,0.06660298607842695,0.06653970123844483,-0.667338522987449,0.7387799443281237,0.0025,0.0,0.0,0.0,0.0025,0.0,0.0,0.0,0.0025,0.01,-0.05,-0.01,0.02,0.0,0.0,0.0,0.02,0.0,0.0,0.0,0.02,-1.886505859375,0.090782109375,9.662357421874999,0.04,0.0,0.0,0.0,0.04,0.0,0.0,0.0,0.04
1614383756.4078214,147,1614383756,407170057,base_imu_link,0.06663781705313895,0.06650481887695818,-0.6677252557667402,0.7384304254401878,0.0025,0.0,0.0,0.0,0.0025,0.0,0.0,0.0,0.0025,0.01,-0.05,-0.01,0.02,0.0,0.0,0.0,0.02,0.0,0.0,0.0,0.02,-1.8960820312499997,0.09576171874999999,9.662357421874999,0.04,0.0,0.0,0.0,0.04,0.0,0.0,0.0,0.04
1614383756.4283783,148,1614383756,427649974,base_imu_link,0.06673703919692371,0.06641161427588776,-0.668117603536015,0.7380748830124159,0.0025,0.0,0.0,0.0,0.0025,0.0,0.0,0.0,0.0025,0.01,-0.05,-0.01,0.02,0.0,0.0,0.0,0.02,0.0,0.0,0.0,0.02,-1.8960820312499997,0.090782109375,9.662357421874999,0.04,0.0,0.0,0.0,0.04,0.0,0.0,0.0,0.04
1614383756.448067,149,1614383756,447271108,base_imu_link,0.06678367938086122,0.06648773492080835,-0.6679835907006894,0.738185101331684,0.0025,0.0,0.0,0.0,0.0025,0.0,0.0,0.0,0.0025,0.01,-0.05,-0.01,0.02,0.0,0.0,0.0,0.02,0.0,0.0,0.0,0.02,-1.9010616406249998,0.076609375,9.66733703125,0.04,0.0,0.0,0.0,0.04,0.0,0.0,0.0,0.04
1614383756.4680321,150,1614383756,467112064,base_imu_link,0.06673087378065445,0.06653438151143659,-0.6681066144549904,0.7380743311366761,0.0025,0.0,0.0,0.0,0.0025,0.0,0.0,0.0,0.0025,0.01,-0.05,-0.01,0.02,0.0,0.0,0.0,0.02,0.0,0.0,0.0,0.02,-1.8960820312499997,0.090782109375,9.6573778125,0.04,0.0,0.0,0.0,0.04,0.0,0.0,0.0,0.04
1614383756.4922879,151,1614383756,487070083,base_imu_link,0.06679492888563675,0.06659301552979799,-0.6681658243720457,0.7380096468875155,0.0025,0.0,0.0,0.0,0.0025,0.0,0.0,0.0,0.0025,0.01,-0.05,-0.01,0.02,0.0,0.0,0.0,0.02,0.0,0.0,0.0,0.02,-1.8960820312499997,0.09576171874999999,9.652781249999999,0.04,0.0,0.0,0.0,0.04,0.0,0.0,0.0,0.04
1614383756.5081518,152,1614383756,507282018,base_imu_link,0.06678330519455254,0.06660467242979608,-0.6680370072134555,0.7381262525822397,0.0025,0.0,0.0,0.0,0.0025,0.0,0.0,0.0,0.0025,0.01,-0.05,-0.01,0.02,0.0,0.0,0.0,0.02,0.0,0.0,0.0,0.02,-1.8960820312499997,0.09576171874999999,9.662357421874999,0.04,0.0,0.0,0.0,0.04,0.0,0.0,0.0,0.04
1614383756.5279806,153,1614383756,527220964,base_imu_link,0.06684771860719366,0.06654637494975306,-0.6680428170239073,0.7381204218288656,0.0025,0.0,0.0,0.0,0.0025,0.0,0.0,0.0,0.0025,0.01,-0.05,-0.01,0.02,0.0,0.0,0.0,0.02,0.0,0.0,0.0,0.02,-1.9010616406249998,0.09576171874999999,9.66733703125,0.04,0.0,0.0,0.0,0.04,0.0,0.0,0.0,0.04
1614383756.5479145,154,1614383756,547235965,base_imu_link,0.06690595542931956,0.06661084270053623,-0.6680376220007262,0.7381140320807004,0.0025,0.0,0.0,0.0,0.0025,0.0,0.0,0.0,0.0025,0.01,-0.05,-0.01,0.02,0.0,0.0,0.0,0.02,0.0,0.0,0.0,0.02,-1.89148546875,0.08618554687499999,9.6573778125,0.04,0.0,0.0,0.0,0.04,0.0,0.0,0.0,0.04
1614383756.568181,155,1614383756,567352056,base_imu_link,0.06690595542931956,0.06661084270053623,-0.6680376220007262,0.7381140320807004,0.0025,0.0,0.0,0.0,0.0025,0.0,0.0,0.0,0.0025,0.01,-0.05,-0.01,0.02,0.0,0.0,0.0,0.02,0.0,0.0,0.0,0.02,-1.881909296875,0.08120593749999999,9.66733703125,0.04,0.0,0.0,0.0,0.04,0.0,0.0,0.0,0.04
1614383756.5880594,156,1614383756,587250947,base_imu_link,0.06682978774933404,0.06655803265998889,-0.6685521537111541,0.7376596949311982,0.0025,0.0,0.0,0.0,0.0025,0.0,0.0,0.0,0.0025,0.01,-0.05,-0.01,0.02,0.0,0.0,0.0,0.02,0.0,0.0,0.0,0.02,-1.89148546875,0.08618554687499999,9.67193359375,0.04,0.0,0.0,0.0,0.04,0.0,0.0,0.0,0.04
1614383756.60838,157,1614383756,607606887,base_imu_link,0.06685882280702758,0.06652886632919333,-0.6688739548203897,0.7373679138128687,0.0025,0.0,0.0,0.0,0.0025,0.0,0.0,0.0,0.0025,0.01,-0.05,-0.01,0.02,0.0,0.0,0.0,0.02,0.0,0.0,0.0,0.02,-1.8960820312499997,0.090782109375,9.67193359375,0.04,0.0,0.0,0.0,0.04,0.0,0.0,0.0,0.04
1614383756.628372,158,1614383756,627484083,base_imu_link,0.06685882280702758,0.06652886632919333,-0.6688739548203897,0.7373679138128687,0.0025,0.0,0.0,0.0,0.0025,0.0,0.0,0.0,0.0025,0.01,-0.05,-0.01,0.02,0.0,0.0,0.0,0.02,0.0,0.0,0.0,0.02,-1.9010616406249998,0.08618554687499999,9.67193359375,0.04,0.0,0.0,0.0,0.04,0.0,0.0,0.0,0.04
1614383756.6483355,159,1614383756,647552013,base_imu_link,0.066864628291266,0.06652303154291765,-0.6689382997628976,0.7373095407412917,0.0025,0.0,0.0,0.0,0.0025,0.0,0.0,0.0,0.0025,0.01,-0.05,-0.01,0.02,0.0,0.0,0.0,0.02,0.0,0.0,0.0,0.02,-1.8960820312499997,0.08120593749999999,9.66733703125,0.04,0.0,0.0,0.0,0.04,0.0,0.0,0.0,0.04
1614383756.6681118,160,1614383756,667558908,base_imu_link,0.06691713328487951,0.06659326751669761,-0.6688687469315301,0.7373615350509056,0.0025,0.0,0.0,0.0,0.0025,0.0,0.0,0.0,0.0025,0.01,-0.05,-0.01,0.02,0.0,0.0,0.0,0.02,0.0,0.0,0.0,0.02,-1.8960820312499997,0.08618554687499999,9.652781249999999,0.04,0.0,0.0,0.0,0.04,0.0,0.0,0.0,0.04
1614383756.688342,161,1614383756,687674999,base_imu_link,0.06692875498339255,0.06658158725946528,-0.6689974306090651,0.7372447842018636,0.0025,0.0,0.0,0.0,0.0025,0.0,0.0,0.0,0.0025,0.01,-0.05,-0.01,0.02,0.0,0.0,0.0,0.02,0.0,0.0,0.0,0.02,-1.9056582031249998,0.09576171874999999,9.6573778125,0.04,0.0,0.0,0.0,0.04,0.0,0.0,0.0,0.04
1614383756.7086034,162,1614383756,707763910,base_imu_link,0.06692875498339255,0.06658158725946528,-0.6689974306090651,0.7372447842018636,0.0025,0.0,0.0,0.0,0.0025,0.0,0.0,0.0,0.0025,0.01,-0.05,-0.01,0.02,0.0,0.0,0.0,0.02,0.0,0.0,0.0,0.02,-1.89148546875,0.090782109375,9.6573778125,0.04,0.0,0.0,0.0,0.04,0.0,0.0,0.0,0.04
1614383756.7286408,163,1614383756,727905988,base_imu_link,0.06692294438895971,0.06658742764162759,-0.6689330913174059,0.737303162433827,0.0025,0.0,0.0,0.0,0.0025,0.0,0.0,0.0,0.0025,0.01,-0.05,-0.01,0.02,0.0,0.0,0.0,0.02,0.0,0.0,0.0,0.02,-1.8960820312499997,0.08618554687499999,9.662357421874999,0.04,0.0,0.0,0.0,0.04,0.0,0.0,0.0,0.04
1614383756.748433,164,1614383756,747703075,base_imu_link,0.0669461837083644,0.06656406307086962,-0.669190417913842,0.7370696158211113,0.0025,0.0,0.0,0.0,0.0025,0.0,0.0,0.0,0.0025,0.01,-0.05,-0.01,0.02,0.0,0.0,0.0,0.02,0.0,0.0,0.0,0.02,-1.9056582031249998,0.09576171874999999,9.662357421874999,0.04,0.0,0.0,0.0,0.04,0.0,0.0,0.0,0.04
1614383756.7685554,165,1614383756,767910003,base_imu_link,0.06706884241706246,0.06657004062354063,-0.6691910140260854,0.7370573836649051,0.0025,0.0,0.0,0.0,0.0025,0.0,0.0,0.0,0.0025,0.01,-0.05,-0.01,0.02,0.0,0.0,0.0,0.02,0.0,0.0,0.0,0.02,-1.8960820312499997,0.090782109375,9.66733703125,0.04,0.0,0.0,0.0,0.04,0.0,0.0,0.0,0.04
1614383756.789789,166,1614383756,788100004,base_imu_link,0.06706884241706246,0.06657004062354063,-0.6691910140260854,0.7370573836649051,0.0025,0.0,0.0,0.0,0.0025,0.0,0.0,0.0,0.0025,0.01,-0.05,-0.01,0.02,0.0,0.0,0.0,0.02,0.0,0.0,0.0,0.02,-1.9010616406249998,0.08618554687499999,9.67193359375,0.04,0.0,0.0,0.0,0.04,0.0,0.0,0.0,0.04
1614383756.8087351,167,1614383756,807910919,base_imu_link,0.06707465149363619,0.06656418750943975,-0.6692553318685186,0.7369989829258752,0.0025,0.0,0.0,0.0,0.0025,0.0,0.0,0.0,0.0025,0.01,-0.05,-0.01,0.02,0.0,0.0,0.0,0.02,0.0,0.0,0.0,0.02,-1.89148546875,0.090782109375,9.67193359375,0.04,0.0,0.0,0.0,0.04,0.0,0.0,0.0,0.04
1614383756.8288083,168,1614383756,828114986,base_imu_link,0.06702816458228772,0.0666109982248754,-0.6687406464634185,0.7374660316488513,0.0025,0.0,0.0,0.0,0.0025,0.0,0.0,0.0,0.0025,0.01,-0.05,-0.01,0.02,0.0,0.0,0.0,0.02,0.0,0.0,0.0,0.02,-1.8960820312499997,0.090782109375,9.67193359375,0.04,0.0,0.0,0.0,0.04,0.0,0.0,0.0,0.04
1614383756.8490057,169,1614383756,848172903,base_imu_link,0.06705722273168388,0.06658174533081829,-0.6690623630531656,0.7371741683034811,0.0025,0.0,0.0,0.0,0.0025,0.0,0.0,0.0,0.0025,0.01,-0.05,-0.01,0.02,0.0,0.0,0.0,0.02,0.0,0.0,0.0,0.02,-1.89148546875,0.090782109375,9.67653015625,0.04,0.0,0.0,0.0,0.04,0.0,0.0,0.0,0.04
1614383756.8687649,170,1614383756,868108987,base_imu_link,0.0670456010036255,0.0665934480099,-0.6689336916994408,0.7372909304864482,0.0025,0.0,0.0,0.0,0.0025,0.0,0.0,0.0,0.0025,0.01,-0.05,-0.01,0.02,0.0,0.0,0.0,0.02,0.0,0.0,0.0,0.02,-1.886505859375,0.09576171874999999,9.67193359375,0.04,0.0,0.0,0.0,0.04,0.0,0.0,0.0,0.04
1614383756.8888679,171,1614383756,888088941,base_imu_link,0.06698147996281727,0.0665348974537151,-0.6688745557435485,0.7373556926217394,0.0025,0.0,0.0,0.0,0.0025,0.0,0.0,0.0,0.0025,0.01,-0.05,-0.01,0.02,0.0,0.0,0.0,0.02,0.0,0.0,0.0,0.02,-1.881909296875,0.09576171874999999,9.662357421874999,0.04,0.0,0.0,0.0,0.04,0.0,0.0,0.0,0.04
1614383756.909107,172,1614383756,908396005,base_imu_link,0.06701069489023455,0.06638873768847943,-0.6691429012350827,0.7371227034932206,0.0025,0.0,0.0,0.0,0.0025,0.0,0.0,0.0,0.0025,0.01,-0.05,-0.01,0.02,0.0,0.0,0.0,0.02,0.0,0.0,0.0,0.02,-1.886505859375,0.090782109375,9.67193359375,0.04,0.0,0.0,0.0,0.04,0.0,0.0,0.0,0.04
1614383756.9289753,173,1614383756,928271055,base_imu_link,0.06698751676700207,0.06641212478856892,-0.6688855561104484,0.7373562335162523,0.0025,0.0,0.0,0.0,0.0025,0.0,0.0,0.0,0.0025,0.01,-0.05,-0.01,0.02,0.0,0.0,0.0,0.02,0.0,0.0,0.0,0.02,-1.9010616406249998,0.090782109375,9.66733703125,0.04,0.0,0.0,0.0,0.04,0.0,0.0,0.0,0.04
1614383756.9489772,174,1614383756,948249101,base_imu_link,0.06704002470403059,0.06648237748298762,-0.6688160110023351,0.7374082125924669,0.0025,0.0,0.0,0.0,0.0025,0.0,0.0,0.0,0.0025,0.01,-0.05,-0.01,0.02,0.0,0.0,0.0,0.02,0.0,0.0,0.0,0.02,-1.8960820312499997,0.090782109375,9.67193359375,0.04,0.0,0.0,0.0,0.04,0.0,0.0,0.0,0.04
1614383756.9697516,175,1614383756,968190908,base_imu_link,0.06701100991367306,0.0665116228824489,-0.6684941923149562,0.7376999684242007,0.0025,0.0,0.0,0.0,0.0025,0.0,0.0,0.0,0.0025,0.01,-0.05,-0.01,0.02,0.0,0.0,0.0,0.02,0.0,0.0,0.0,0.02,-1.9010616406249998,0.08618554687499999,9.67193359375,0.04,0.0,0.0,0.0,0.04,0.0,0.0,0.0,0.04
1614383756.9891412,176,1614383756,988312959,base_imu_link,0.0669175801954511,0.06659916439394004,-0.6681664370264273,0.7379974262788617,0.0025,0.0,0.0,0.0,0.0025,0.0,0.0,0.0,0.0025,0.01,-0.05,-0.01,0.02,0.0,0.0,0.0,0.02,0.0,0.0,0.0,0.02,-1.9056582031249998,0.08618554687499999,9.66733703125,0.04,0.0,0.0,0.0,0.04,0.0,0.0,0.0,0.04
1614383757.009057,177,1614383757,8409976,base_imu_link,0.06695837296851258,0.06668115341829481,-0.6679680073040769,0.738165930727256,0.0025,0.0,0.0,0.0,0.0025,0.0,0.0,0.0,0.0025,0.01,-0.05,-0.01,0.02,0.0,0.0,0.0,0.02,0.0,0.0,0.0,0.02,-1.89148546875,0.090782109375,9.66733703125,0.04,0.0,0.0,0.0,0.04,0.0,0.0,0.0,0.04
1614383757.030275,178,1614383757,28703927,base_imu_link,0.0669816450022261,0.06665777647491974,-0.6682256351222511,0.7379327209398424,0.0025,0.0,0.0,0.0,0.0025,0.0,0.0,0.0,0.0025,0.01,-0.05,-0.01,0.02,0.0,0.0,0.0,0.02,0.0,0.0,0.0,0.02,-1.89148546875,0.08120593749999999,9.662357421874999,0.04,0.0,0.0,0.0,0.04,0.0,0.0,0.0,0.04
1614383757.049141,179,1614383757,48371076,base_imu_link,0.06701653774907879,0.06662269583190779,-0.6686119241748306,0.7375827376772358,0.0025,0.0,0.0,0.0,0.0025,0.0,0.0,0.0,0.0025,0.01,-0.05,-0.01,0.02,0.0,0.0,0.0,0.02,0.0,0.0,0.0,0.02,-1.9010616406249998,0.08120593749999999,9.6573778125,0.04,0.0,0.0,0.0,0.04,0.0,0.0,0.0,0.04
1614383757.0695362,180,1614383757,68530082,base_imu_link,0.06695217125758872,0.06668104297562805,-0.6686061077019584,0.7375885831649066,0.0025,0.0,0.0,0.0,0.0025,0.0,0.0,0.0,0.0025,0.01,-0.05,-0.01,0.02,0.0,0.0,0.0,0.02,0.0,0.0,0.0,0.02,-1.9010616406249998,0.076609375,9.652781249999999,0.04,0.0,0.0,0.0,0.04,0.0,0.0,0.0,0.04
1614383757.0897667,181,1614383757,88877916,base_imu_link,0.06692276878179539,0.06682717420285222,-0.6683375571471513,0.7378213750720554,0.0025,0.0,0.0,0.0,0.0025,0.0,0.0,0.0,0.0025,0.01,-0.05,-0.01,0.02,0.0,0.0,0.0,0.02,0.0,0.0,0.0,0.02,-1.9152343749999998,0.08120593749999999,9.652781249999999,0.04,0.0,0.0,0.0,0.04,0.0,0.0,0.0,0.04
1614383757.1094937,182,1614383757,108699083,base_imu_link,0.06699854320208812,0.06687407621778461,-0.6685254694247326,0.7376399866257637,0.0025,0.0,0.0,0.0,0.0025,0.0,0.0,0.0,0.0025,0.01,-0.05,-0.01,0.02,0.0,0.0,0.0,0.02,0.0,0.0,0.0,0.02,-1.9010616406249998,0.090782109375,9.6573778125,0.04,0.0,0.0,0.0,0.04,0.0,0.0,0.0,0.04
1614383757.1295896,183,1614383757,128854990,base_imu_link,0.06699854320208812,0.06687407621778461,-0.6685254694247326,0.7376399866257637,0.0025,0.0,0.0,0.0,0.0025,0.0,0.0,0.0,0.0025,0.01,-0.05,-0.01,0.02,0.0,0.0,0.0,0.02,0.0,0.0,0.0,0.02,-1.8960820312499997,0.08618554687499999,9.66733703125,0.04,0.0,0.0,0.0,0.04,0.0,0.0,0.0,0.04
1614383757.1493957,184,1614383757,148564100,base_imu_link,0.06698687045355892,0.06688576865090398,-0.6683967167785512,0.737756655096021,0.0025,0.0,0.0,0.0,0.0025,0.0,0.0,0.0,0.0025,0.01,-0.05,-0.01,0.02,0.0,0.0,0.0,0.02,0.0,0.0,0.0,0.02,-1.9010616406249998,0.09576171874999999,9.6573778125,0.04,0.0,0.0,0.0,0.04,0.0,0.0,0.0,0.04
1614383757.1695702,185,1614383757,168761014,base_imu_link,0.06705708315091422,0.06682158819921569,-0.6684669294759066,0.7376924746443325,0.0025,0.0,0.0,0.0,0.0025,0.0,0.0,0.0,0.0025,0.01,-0.05,-0.01,0.02,0.0,0.0,0.0,0.02,0.0,0.0,0.0,0.02,-1.89148546875,0.08120593749999999,9.648184687499999,0.04,0.0,0.0,0.0,0.04,0.0,0.0,0.0,0.04
1614383757.1899805,186,1614383757,189125061,base_imu_link,0.06698103331407082,0.06689161410343952,-0.6683323328200174,0.7378149809038642,0.0025,0.0,0.0,0.0,0.0025,0.0,0.0,0.0,0.0025,0.01,-0.05,-0.01,0.02,0.0,0.0,0.0,0.02,0.0,0.0,0.0,0.02,-1.881909296875,0.08120593749999999,9.6573778125,0.04,0.0,0.0,0.0,0.04,0.0,0.0,0.0,0.04
1614383757.2095764,187,1614383757,208785057,base_imu_link,0.06692276878179539,0.06682717420285222,-0.6683375571471513,0.7378213750720554,0.0025,0.0,0.0,0.0,0.0025,0.0,0.0,0.0,0.0025,0.01,-0.05,-0.01,0.02,0.0,0.0,0.0,0.02,0.0,0.0,0.0,0.02,-1.886505859375,0.08120593749999999,9.662357421874999,0.04,0.0,0.0,0.0,0.04,0.0,0.0,0.0,0.04
1614383757.2297466,188,1614383757,228972911,base_imu_link,0.06691693675588153,0.06683301406168476,-0.668273167540959,0.7378796957170006,0.0025,0.0,0.0,0.0,0.0025,0.0,0.0,0.0,0.0025,0.01,-0.05,-0.01,0.02,0.0,0.0,0.0,0.02,0.0,0.0,0.0,0.02,-1.886505859375,0.08120593749999999,9.66733703125,0.04,0.0,0.0,0.0,0.04,0.0,0.0,0.0,0.04
1614383757.2496712,189,1614383757,249002933,base_imu_link,0.06678845237442917,0.0668327152507821,-0.668208161257646,0.7379502314047421,0.0025,0.0,0.0,0.0,0.0025,0.0,0.0,0.0,0.0025,0.01,-0.05,-0.01,0.02,0.0,0.0,0.0,0.02,0.0,0.0,0.0,0.02,-1.886505859375,0.08120593749999999,9.662357421874999,0.04,0.0,0.0,0.0,0.04,0.0,0.0,0.0,0.04
1614383757.2702165,190,1614383757,268824100,base_imu_link,0.06678845237442917,0.0668327152507821,-0.668208161257646,0.7379502314047421,0.0025,0.0,0.0,0.0,0.0025,0.0,0.0,0.0,0.0025,0.01,-0.05,-0.01,0.02,0.0,0.0,0.0,0.02,0.0,0.0,0.0,0.02,-1.9010616406249998,0.08618554687499999,9.662357421874999,0.04,0.0,0.0,0.0,0.04,0.0,0.0,0.0,0.04
1614383757.2897425,191,1614383757,288990974,base_imu_link,0.06681177732355373,0.06680939761164882,-0.6684657137679236,0.7377169378009273,0.0025,0.0,0.0,0.0,0.0025,0.0,0.0,0.0,0.0025,0.01,-0.05,-0.01,0.02,0.0,0.0,0.0,0.02,0.0,0.0,0.0,0.02,-1.8960820312499997,0.090782109375,9.662357421874999,0.04,0.0,0.0,0.0,0.04,0.0,0.0,0.0,0.04
1614383757.3096905,192,1614383757,309062004,base_imu_link,0.0669052742951626,0.06672187613841482,-0.668793364990978,0.7374193586149632,0.0025,0.0,0.0,0.0,0.0025,0.0,0.0,0.0,0.0025,0.01,-0.05,-0.01,0.02,0.0,0.0,0.0,0.02,0.0,0.0,0.0,0.02,-1.8960820312499997,0.090782109375,9.67193359375,0.04,0.0,0.0,0.0,0.04,0.0,0.0,0.0,0.04
1614383757.3299959,193,1614383757,329181909,base_imu_link,0.06693438083587198,0.06669267685480443,-0.6691150612107545,0.7371274722712398,0.0025,0.0,0.0,0.0,0.0025,0.0,0.0,0.0,0.0025,0.01,-0.05,-0.01,0.02,0.0,0.0,0.0,0.02,0.0,0.0,0.0,0.02,-1.8960820312499997,0.090782109375,9.67193359375,0.04,0.0,0.0,0.0,0.04,0.0,0.0,0.0,0.04
1614383757.3499658,194,1614383757,349057912,base_imu_link,0.06699870708791329,0.0666342852964676,-0.6691208786969363,0.7371216283378321,0.0025,0.0,0.0,0.0,0.0025,0.0,0.0,0.0,0.0025,0.01,-0.05,-0.01,0.02,0.0,0.0,0.0,0.02,0.0,0.0,0.0,0.02,-1.8960820312499997,0.08618554687499999,9.6573778125,0.04,0.0,0.0,0.0,0.04,0.0,0.0,0.0,0.04
1614383757.3703737,195,1614383757,369402885,base_imu_link,0.06695765689348529,0.06666930828556135,-0.6693723264686696,0.7368938621497535,0.0025,0.0,0.0,0.0,0.0025,0.0,0.0,0.0,0.0025,0.01,-0.05,-0.01,0.02,0.0,0.0,0.0,0.02,0.0,0.0,0.0,0.02,-1.89148546875,0.08120593749999999,9.6573778125,0.04,0.0,0.0,0.0,0.04,0.0,0.0,0.0,0.04
1614383757.38979,196,1614383757,389058113,base_imu_link,0.06695765689348529,0.06666930828556135,-0.6693723264686696,0.7368938621497535,0.0025,0.0,0.0,0.0,0.0025,0.0,0.0,0.0,0.0025,0.01,-0.05,-0.01,0.02,0.0,0.0,0.0,0.02,0.0,0.0,0.0,0.02,-1.9010616406249998,0.08120593749999999,9.662357421874999,0.04,0.0,0.0,0.0,0.04,0.0,0.0,0.0,0.04
1614383757.4105248,197,1614383757,409298896,base_imu_link,0.06702183521026184,0.06672781877454494,-0.6694314013311591,0.7368290647894127,0.0025,0.0,0.0,0.0,0.0025,0.0,0.0,0.0,0.0025,0.01,-0.05,-0.01,0.02,0.0,0.0,0.0,0.02,0.0,0.0,0.0,0.02,-1.9010616406249998,0.090782109375,9.662357421874999,0.04,0.0,0.0,0.0,0.04,0.0,0.0,0.0,0.04
1614383757.4303055,198,1614383757,429302930,base_imu_link,0.06703348039080469,0.06671612024133004,-0.6695599920665327,0.7367122157467628,0.0025,0.0,0.0,0.0,0.0025,0.0,0.0,0.0,0.0025,0.01,-0.05,-0.01,0.02,0.0,0.0,0.0,0.02,0.0,0.0,0.0,0.02,-1.9010616406249998,0.090782109375,9.652781249999999,0.04,0.0,0.0,0.0,0.04,0.0,0.0,0.0,0.04
1614383757.4498563,199,1614383757,449173927,base_imu_link,0.06710940334408168,0.06664597807002384,-0.669694380914695,0.7365894906670709,0.0025,0.0,0.0,0.0,0.0025,0.0,0.0,0.0,0.0025,0.01,-0.05,-0.01,0.02,0.0,0.0,0.0,0.02,0.0,0.0,0.0,0.02,-1.89148546875,0.090782109375,9.6573778125,0.04,0.0,0.0,0.0,0.04,0.0,0.0,0.0,0.04
1614383757.4708965,200,1614383757,469312906,base_imu_link,0.06708613542100482,0.06666939961019104,-0.6694372218828474,0.7368232132253072,0.0025,0.0,0.0,0.0,0.0025,0.0,0.0,0.0,0.0025,0.01,-0.05,-0.01,0.02,0.0,0.0,0.0,0.02,0.0,0.0,0.0,0.02,-1.89148546875,0.08120593749999999,9.662357421874999,0.04,0.0,0.0,0.0,0.04,0.0,0.0,0.0,0.04
1614383757.490179,201,1614383757,489321947,base_imu_link,0.06710940334408168,0.06664597807002384,-0.669694380914695,0.7365894906670709,0.0025,0.0,0.0,0.0,0.0025,0.0,0.0,0.0,0.0025,0.01,-0.05,-0.01,0.02,0.0,0.0,0.0,0.02,0.0,0.0,0.0,0.02,-1.8960820312499997,0.08618554687499999,9.6573778125,0.04,0.0,0.0,0.0,0.04,0.0,0.0,0.0,0.04
1614383757.510362,202,1614383757,509623050,base_imu_link,0.06705094433283953,0.06669856863107676,-0.6697528399259371,0.7365369001060178,0.0025,0.0,0.0,0.0,0.0025,0.0,0.0,0.0,0.0025,0.01,-0.05,-0.01,0.02,0.0,0.0,0.0,0.02,0.0,0.0,0.0,0.02,-1.8960820312499997,0.08120593749999999,9.662357421874999,0.04,0.0,0.0,0.0,0.04,0.0,0.0,0.0,0.04
1614383757.5304413,203,1614383757,529535055,base_imu_link,0.06705094433283953,0.06669856863107676,-0.6697528399259371,0.7365369001060178,0.0025,0.0,0.0,0.0,0.0025,0.0,0.0,0.0,0.0025,0.01,-0.05,-0.01,0.02,0.0,0.0,0.0,0.02,0.0,0.0,0.0,0.02,-1.886505859375,0.08120593749999999,9.662357421874999,0.04,0.0,0.0,0.0,0.04,0.0,0.0,0.0,0.04
1614383757.5504131,204,1614383757,549499988,base_imu_link,0.06706840367927513,0.0666810124493757,-0.6699456418812059,0.73636153398383,0.0025,0.0,0.0,0.0,0.0025,0.0,0.0,0.0,0.0025,0.01,-0.05,-0.01,0.02,0.0,0.0,0.0,0.02,0.0,0.0,0.0,0.02,-1.886505859375,0.090782109375,9.6573778125,0.04,0.0,0.0,0.0,0.04,0.0,0.0,0.0,0.04
1614383757.5705338,205,1614383757,569627046,base_imu_link,0.06701581133749715,0.06661085132857789,-0.6700151327155898,0.736309444084598,0.0025,0.0,0.0,0.0,0.0025,0.0,0.0,0.0,0.0025,0.01,-0.05,-0.01,0.02,0.0,0.0,0.0,0.02,0.0,0.0,0.0,0.02,-1.89148546875,0.08618554687499999,9.6573778125,0.04,0.0,0.0,0.0,0.04,0.0,0.0,0.0,0.04
1614383757.5911672,206,1614383757,590240001,base_imu_link,0.06697510858277735,0.06665177652745724,-0.6695652218894218,0.7367185956335217,0.0025,0.0,0.0,0.0,0.0025,0.0,0.0,0.0,0.0025,0.01,-0.05,-0.01,0.02,0.0,0.0,0.0,0.02,0.0,0.0,0.0,0.02,-1.8960820312499997,0.08120593749999999,9.652781249999999,0.04,0.0,0.0,0.0,0.04,0.0,0.0,0.0,0.04
1614383757.610436,207,1614383757,609711885,base_imu_link,0.06706258440782595,0.0666868650178071,-0.6698813796640581,0.7364199949661999,0.0025,0.0,0.0,0.0,0.0025,0.0,0.0,0.0,0.0025,0.01,-0.05,-0.01,0.02,0.0,0.0,0.0,0.02,0.0,0.0,0.0,0.02,-1.89148546875,0.090782109375,9.652781249999999,0.04,0.0,0.0,0.0,0.04,0.0,0.0,0.0,0.04
1614383757.6313336,208,1614383757,630223989,base_imu_link,0.06699255568166786,0.0666342402011124,-0.6697580714188974,0.7365432786233937,0.0025,0.0,0.0,0.0,0.0025,0.0,0.0,0.0,0.0025,0.01,-0.05,-0.01,0.02,0.0,0.0,0.0,0.02,0.0,0.0,0.0,0.02,-1.89148546875,0.08618554687499999,9.652781249999999,0.04,0.0,0.0,0.0,0.04,0.0,0.0,0.0,0.04
1614383757.6505096,209,1614383757,649638891,base_imu_link,0.0669809247925112,0.06664593159286525,-0.6696295101655972,0.7366601622399853,0.0025,0.0,0.0,0.0,0.0025,0.0,0.0,0.0,0.0025,0.01,-0.05,-0.01,0.02,0.0,0.0,0.0,0.02,0.0,0.0,0.0,0.02,-1.8960820312499997,0.08120593749999999,9.6573778125,0.04,0.0,0.0,0.0,0.04,0.0,0.0,0.0,0.04
1614383757.6713305,210,1614383757,670016050,base_imu_link,0.06706258440782595,0.0666868650178071,-0.6698813796640581,0.7364199949661999,0.0025,0.0,0.0,0.0,0.0025,0.0,0.0,0.0,0.0025,0.01,-0.05,-0.01,0.02,0.0,0.0,0.0,0.02,0.0,0.0,0.0,0.02,-1.8960820312499997,0.08618554687499999,9.662357421874999,0.04,0.0,0.0,0.0,0.04,0.0,0.0,0.0,0.04
1614383757.690893,211,1614383757,690095901,base_imu_link,0.06705094433283953,0.06669856863107676,-0.6697528399259371,0.7365369001060178,0.0025,0.0,0.0,0.0,0.0025,0.0,0.0,0.0,0.0025,0.01,-0.05,-0.01,0.02,0.0,0.0,0.0,0.02,0.0,0.0,0.0,0.02,-1.89148546875,0.08618554687499999,9.6573778125,0.04,0.0,0.0,0.0,0.04,0.0,0.0,0.0,0.04
1614383757.710668,212,1614383757,709784030,base_imu_link,0.06697510858277735,0.06665177652745724,-0.6695652218894218,0.7367185956335217,0.0025,0.0,0.0,0.0,0.0025,0.0,0.0,0.0,0.0025,0.01,-0.05,-0.01,0.02,0.0,0.0,0.0,0.02,0.0,0.0,0.0,0.02,-1.9010616406249998,0.08120593749999999,9.652781249999999,0.04,0.0,0.0,0.0,0.04,0.0,0.0,0.0,0.04
1614383757.7308116,213,1614383757,730087041,base_imu_link,0.06695170603547947,0.06679208032360612,-0.6693612721563769,0.7368933263384737,0.0025,0.0,0.0,0.0,0.0025,0.0,0.0,0.0,0.0025,0.01,-0.05,-0.01,0.02,0.0,0.0,0.0,0.02,0.0,0.0,0.0,0.02,-1.9010616406249998,0.08618554687499999,9.652781249999999,0.04,0.0,0.0,0.0,0.04,0.0,0.0,0.0,0.04
1614383757.7507133,214,1614383757,750056982,base_imu_link,0.06698666910776364,0.0667570153381897,-0.66974701682757,0.7365427486002116,0.0025,0.0,0.0,0.0,0.0025,0.0,0.0,0.0,0.0025,0.01,-0.05,-0.01,0.02,0.0,0.0,0.0,0.02,0.0,0.0,0.0,0.02,-1.8960820312499997,0.090782109375,9.652781249999999,0.04,0.0,0.0,0.0,0.04,0.0,0.0,0.0,0.04
1614383757.7707314,215,1614383757,770044088,base_imu_link,0.06710933247338907,0.06676289655310245,-0.6697476033325173,0.7365305159795926,0.0025,0.0,0.0,0.0,0.0025,0.0,0.0,0.0,0.0025,0.01,-0.05,-0.01,0.02,0.0,0.0,0.0,0.02,0.0,0.0,0.0,0.02,-1.8960820312499997,0.08618554687499999,9.6573778125,0.04,0.0,0.0,0.0,0.04,0.0,0.0,0.0,0.04
1614383757.7907302,216,1614383757,789978981,base_imu_link,0.06711515837966338,0.06675703990484326,-0.669811875194952,0.7364720666709891,0.0025,0.0,0.0,0.0,0.0025,0.0,0.0,0.0,0.0025,0.01,-0.05,-0.01,0.02,0.0,0.0,0.0,0.02,0.0,0.0,0.0,0.02,-1.886505859375,0.08618554687499999,9.6573778125,0.04,0.0,0.0,0.0,0.04,0.0,0.0,0.0,0.04
1614383757.810934,217,1614383757,810138940,base_imu_link,0.06706258440782595,0.0666868650178071,-0.6698813796640581,0.7364199949661999,0.0025,0.0,0.0,0.0,0.0025,0.0,0.0,0.0,0.0025,0.01,-0.05,-0.01,0.02,0.0,0.0,0.0,0.02,0.0,0.0,0.0,0.02,-1.886505859375,0.08618554687499999,9.6573778125,0.04,0.0,0.0,0.0,0.04,0.0,0.0,0.0,0.04
1614383757.8309865,218,1614383757,830246925,base_imu_link,0.06703930221536455,0.06671027021259185,-0.6696242797859778,0.7366537828096389,0.0025,0.0,0.0,0.0,0.0025,0.0,0.0,0.0,0.0025,0.01,-0.05,-0.01,0.02,0.0,0.0,0.0,0.02,0.0,0.0,0.0,0.02,-1.89148546875,0.08120593749999999,9.652781249999999,0.04,0.0,0.0,0.0,0.04,0.0,0.0,0.0,0.04
1614383757.8513196,219,1614383757,850389003,base_imu_link,0.06690499568352201,0.066716045678318,-0.6694951089901664,0.7367828647843824,0.0025,0.0,0.0,0.0,0.0025,0.0,0.0,0.0,0.0025,0.01,-0.05,-0.01,0.02,0.0,0.0,0.0,0.02,0.0,0.0,0.0,0.02,-1.9010616406249998,0.076609375,9.6573778125,0.04,0.0,0.0,0.0,0.04,0.0,0.0,0.0,0.04
1614383757.8709667,220,1614383757,870206117,base_imu_link,0.06699249450127219,0.0667511693943509,-0.6698112897575045,0.7364842993427438,0.0025,0.0,0.0,0.0,0.0025,0.0,0.0,0.0,0.0025,0.01,-0.05,-0.01,0.02,0.0,0.0,0.0,0.02,0.0,0.0,0.0,0.02,-1.9010616406249998,0.08120593749999999,9.652781249999999,0.04,0.0,0.0,0.0,0.04,0.0,0.0,0.0,0.04
1614383757.8916535,221,1614383757,890116930,base_imu_link,0.06692822386670139,0.06680962120197358,-0.669805462068632,0.736490142736428,0.0025,0.0,0.0,0.0,0.0025,0.0,0.0,0.0,0.0025,0.01,-0.05,-0.01,0.02,0.0,0.0,0.0,0.02,0.0,0.0,0.0,0.02,-1.8960820312499997,0.090782109375,9.6573778125,0.04,0.0,0.0,0.0,0.04,0.0,0.0,0.0,0.04
1614383757.9110248,222,1614383757,910243034,base_imu_link,0.06699249450127219,0.0667511693943509,-0.6698112897575045,0.7364842993427438,0.0025,0.0,0.0,0.0,0.0025,0.0,0.0,0.0,0.0025,0.01,-0.05,-0.01,0.02,0.0,0.0,0.0,0.02,0.0,0.0,0.0,0.02,-1.89148546875,0.090782109375,9.6573778125,0.04,0.0,0.0,0.0,0.04,0.0,0.0,0.0,0.04
1614383757.9313276,223,1614383757,930538892,base_imu_link,0.06697501679039292,0.06676870570067162,-0.6696184556669444,0.7366596302874212,0.0025,0.0,0.0,0.0,0.0025,0.0,0.0,0.0,0.0025,0.01,-0.05,-0.01,0.02,0.0,0.0,0.0,0.02,0.0,0.0,0.0,0.02,-1.886505859375,0.090782109375,9.66733703125,0.04,0.0,0.0,0.0,0.04,0.0,0.0,0.0,0.04
1614383757.9510934,224,1614383757,950329065,base_imu_link,0.06703348039080469,0.06671612024133004,-0.6695599920665327,0.7367122157467628,0.0025,0.0,0.0,0.0,0.0025,0.0,0.0,0.0,0.0025,0.01,-0.05,-0.01,0.02,0.0,0.0,0.0,0.02,0.0,0.0,0.0,0.02,-1.8960820312499997,0.09576171874999999,9.6573778125,0.04,0.0,0.0,0.0,0.04,0.0,0.0,0.0,0.04
1614383757.971403,225,1614383757,970618009,base_imu_link,0.06699271332767277,0.0667570562139783,-0.6691098352860919,0.7371210891909544,0.0025,0.0,0.0,0.0,0.0025,0.0,0.0,0.0,0.0025,0.01,-0.05,-0.01,0.02,0.0,0.0,0.0,0.02,0.0,0.0,0.0,0.02,-1.89148546875,0.090782109375,9.67193359375,0.04,0.0,0.0,0.0,0.04,0.0,0.0,0.0,0.04
1614383757.991151,226,1614383757,990448951,base_imu_link,0.06698707619079232,0.06664597776184267,-0.6689922165122741,0.7372384007345057,0.0025,0.0,0.0,0.0,0.0025,0.0,0.0,0.0,0.0025,0.01,-0.05,-0.01,0.02,0.0,0.0,0.0,0.02,0.0,0.0,0.0,0.02,-1.9010616406249998,0.090782109375,9.67653015625,0.04,0.0,0.0,0.0,0.04,0.0,0.0,0.0,0.04
1614383758.0113087,227,1614383758,10447025,base_imu_link,0.0670162826176671,0.06673961547849755,-0.6686652554993215,0.7375238421081167,0.0025,0.0,0.0,0.0,0.0025,0.0,0.0,0.0,0.0025,0.01,-0.05,-0.01,0.02,0.0,0.0,0.0,0.02,0.0,0.0,0.0,0.02,-1.8960820312499997,0.090782109375,9.67193359375,0.04,0.0,0.0,0.0,0.04,0.0,0.0,0.0,0.04
1614383758.0313632,228,1614383758,30618906,base_imu_link,0.06700463333669372,0.06675131100977695,-0.6685365231220534,0.7376405349774153,0.0025,0.0,0.0,0.0,0.0025,0.0,0.0,0.0,0.0025,0.01,-0.05,-0.01,0.02,0.0,0.0,0.0,0.02,0.0,0.0,0.0,0.02,-1.8960820312499997,0.090782109375,9.66733703125,0.04,0.0,0.0,0.0,0.04,0.0,0.0,0.0,0.04
1614383758.0514324,229,1614383758,50772905,base_imu_link,0.06696384478212825,0.0667922293541979,-0.668085799454657,0.7380487830468411,0.0025,0.0,0.0,0.0,0.0025,0.0,0.0,0.0,0.0025,0.01,-0.05,-0.01,0.02,0.0,0.0,0.0,0.02,0.0,0.0,0.0,0.02,-1.9010616406249998,0.090782109375,9.6573778125,0.04,0.0,0.0,0.0,0.04,0.0,0.0,0.0,0.04
1614383758.0716624,230,1614383758,70805072,base_imu_link,0.06695801580557131,0.06679807279772074,-0.668021390004334,0.7381070817209172,0.0025,0.0,0.0,0.0,0.0025,0.0,0.0,0.0,0.0025,0.01,-0.05,-0.01,0.02,0.0,0.0,0.0,0.02,0.0,0.0,0.0,0.02,-1.9010616406249998,0.10074132812499999,9.662357421874999,0.04,0.0,0.0,0.0,0.04,0.0,0.0,0.0,0.04
1614383758.091479,231,1614383758,90619087,base_imu_link,0.0670748328114334,0.06681009654507399,-0.6679575929385997,0.7381531222169477,0.0025,0.0,0.0,0.0,0.0025,0.0,0.0,0.0,0.0025,0.01,-0.05,-0.01,0.02,0.0,0.0,0.0,0.02,0.0,0.0,0.0,0.02,-1.8960820312499997,0.10074132812499999,9.67193359375,0.04,0.0,0.0,0.0,0.04,0.0,0.0,0.0,0.04
1614383758.1114466,232,1614383758,110780000,base_imu_link,0.0671101162076176,0.06678109466284181,-0.6676412795968889,0.7384386497715714,0.0025,0.0,0.0,0.0,0.0025,0.0,0.0,0.0,0.0025,0.01,-0.05,-0.01,0.02,0.0,0.0,0.0,0.02,0.0,0.0,0.0,0.02,-1.9010616406249998,0.090782109375,9.66733703125,0.04,0.0,0.0,0.0,0.04,0.0,0.0,0.0,0.04
1614383758.1315424,233,1614383758,130734920,base_imu_link,0.06709845968573172,0.06679280657054029,-0.6675123875711599,0.7385551639094279,0.0025,0.0,0.0,0.0,0.0025,0.0,0.0,0.0,0.0025,0.01,-0.05,-0.01,0.02,0.0,0.0,0.0,0.02,0.0,0.0,0.0,0.02,-1.9010616406249998,0.090782109375,9.662357421874999,0.04,0.0,0.0,0.0,0.04,0.0,0.0,0.0,0.04
1614383758.1515355,234,1614383758,150840997,base_imu_link,0.06708097107063397,0.06681037061705425,-0.6673190114083126,0.7387298929319599,0.0025,0.0,0.0,0.0,0.0025,0.0,0.0,0.0,0.0025,0.01,-0.05,-0.01,0.02,0.0,0.0,0.0,0.02,0.0,0.0,0.0,0.02,-1.9010616406249998,0.090782109375,9.662357421874999,0.04,0.0,0.0,0.0,0.04,0.0,0.0,0.0,0.04
1614383758.1717777,235,1614383758,171036005,base_imu_link,0.06715664888726307,0.06685731338362001,-0.6675071823057417,0.7385487429598716,0.0025,0.0,0.0,0.0,0.0025,0.0,0.0,0.0,0.0025,0.01,-0.05,-0.01,0.02,0.0,0.0,0.0,0.02,0.0,0.0,0.0,0.02,-1.9056582031249998,0.09576171874999999,9.652781249999999,0.04,0.0,0.0,0.0,0.04,0.0,0.0,0.0,0.04
1614383758.1917617,236,1614383758,190973997,base_imu_link,0.06716831666682539,0.06684559131900751,-0.6676360732108826,0.7384322297306031,0.0025,0.0,0.0,0.0,0.0025,0.0,0.0,0.0,0.0025,0.01,-0.05,-0.01,0.02,0.0,0.0,0.0,0.02,0.0,0.0,0.0,0.02,-1.89148546875,0.09576171874999999,9.66733703125,0.04,0.0,0.0,0.0,0.04,0.0,0.0,0.0,0.04
1614383758.2116435,237,1614383758,210964918,base_imu_link,0.0671799824003238,0.06683386721816187,-0.6677649437786659,0.7383156940074025,0.0025,0.0,0.0,0.0,0.0025,0.0,0.0,0.0,0.0025,0.01,-0.05,-0.01,0.02,0.0,0.0,0.0,0.02,0.0,0.0,0.0,0.02,-1.89148546875,0.10074132812499999,9.662357421874999,0.04,0.0,0.0,0.0,0.04,0.0,0.0,0.0,0.04
1614383758.2320852,238,1614383758,231415033,base_imu_link,0.06719784344982484,0.06669937930754231,-0.6679048257939473,0.7381996927097967,0.0025,0.0,0.0,0.0,0.0025,0.0,0.0,0.0,0.0025,0.01,-0.05,-0.01,0.02,0.0,0.0,0.0,0.02,0.0,0.0,0.0,0.02,-1.886505859375,0.09576171874999999,9.662357421874999,0.04,0.0,0.0,0.0,0.04,0.0,0.0,0.0,0.04
1614383758.251753,239,1614383758,251034975,base_imu_link,0.06719202257507205,0.06670524317165466,-0.667840403174961,0.738257975590367,0.0025,0.0,0.0,0.0,0.0025,0.0,0.0,0.0,0.0025,0.01,-0.05,-0.01,0.02,0.0,0.0,0.0,0.02,0.0,0.0,0.0,0.02,-1.89148546875,0.09576171874999999,9.66733703125,0.04,0.0,0.0,0.0,0.04,0.0,0.0,0.0,0.04
1614383758.271826,240,1614383758,271039962,base_imu_link,0.06719202257507205,0.06670524317165466,-0.667840403174961,0.738257975590367,0.0025,0.0,0.0,0.0,0.0025,0.0,0.0,0.0,0.0025,0.01,-0.05,-0.01,0.02,0.0,0.0,0.0,0.02,0.0,0.0,0.0,0.02,-1.9056582031249998,0.09576171874999999,9.66733703125,0.04,0.0,0.0,0.0,0.04,0.0,0.0,0.0,0.04
1614383758.292359,241,1614383758,291433095,base_imu_link,0.06716291052674705,0.06673455487148125,-0.6675182138014104,0.7385493056520032,0.0025,0.0,0.0,0.0,0.0025,0.0,0.0,0.0,0.0025,0.01,-0.05,-0.01,0.02,0.0,0.0,0.0,0.02,0.0,0.0,0.0,0.02,-1.9056582031249998,0.09576171874999999,9.67193359375,0.04,0.0,0.0,0.0,0.04,0.0,0.0,0.0,0.04
1614383758.311913,242,1614383758,311094045,base_imu_link,0.06720360891071887,0.06681665829180095,-0.6673196412184426,0.7387176088115004,0.0025,0.0,0.0,0.0,0.0025,0.0,0.0,0.0,0.0025,0.01,-0.05,-0.01,0.02,0.0,0.0,0.0,0.02,0.0,0.0,0.0,0.02,-1.8960820312499997,0.09576171874999999,9.66733703125,0.04,0.0,0.0,0.0,0.04,0.0,0.0,0.0,0.04
1614383758.3320975,243,1614383758,331245899,base_imu_link,0.06722692822961472,0.06679319573667948,-0.6675774616480934,0.7384846253129311,0.0025,0.0,0.0,0.0,0.0025,0.0,0.0,0.0,0.0025,0.01,-0.05,-0.01,0.02,0.0,0.0,0.0,0.02,0.0,0.0,0.0,0.02,-1.8960820312499997,0.09576171874999999,9.662357421874999,0.04,0.0,0.0,0.0,0.04,0.0,0.0,0.0,0.04
1614383758.3518715,244,1614383758,351246118,base_imu_link,0.06729137291448709,0.06673493835883444,-0.667583287912057,0.7384787558447795,0.0025,0.0,0.0,0.0,0.0025,0.0,0.0,0.0,0.0025,0.01,-0.05,-0.01,0.02,0.0,0.0,0.0,0.02,0.0,0.0,0.0,0.02,-1.8960820312499997,0.09576171874999999,9.662357421874999,0.04,0.0,0.0,0.0,0.04,0.0,0.0,0.0,0.04
1614383758.3718336,245,1614383758,371234893,base_imu_link,0.06728554893626554,0.06674081038479691,-0.6675188409414425,0.7385370106648137,0.0025,0.0,0.0,0.0,0.0025,0.0,0.0,0.0,0.0025,0.01,-0.05,-0.01,0.02,0.0,0.0,0.0,0.02,0.0,0.0,0.0,0.02,-1.8960820312499997,0.090782109375,9.66733703125,0.04,0.0,0.0,0.0,0.04,0.0,0.0,0.0,0.04
1614383758.39194,246,1614383758,391208887,base_imu_link,0.06726224789973535,0.06676429340559628,-0.6672610022294263,0.738769973697705,0.0025,0.0,0.0,0.0,0.0025,0.0,0.0,0.0,0.0025,0.01,-0.05,-0.01,0.02,0.0,0.0,0.0,0.02,0.0,0.0,0.0,0.02,-1.9010616406249998,0.090782109375,9.662357421874999,0.04,0.0,0.0,0.0,0.04,0.0,0.0,0.0,0.04
1614383758.4120524,247,1614383758,411339044,base_imu_link,0.06717444824727542,0.06684597503651407,-0.6669972513416448,0.7390087116041207,0.0025,0.0,0.0,0.0,0.0025,0.0,0.0,0.0,0.0025,0.01,-0.05,-0.01,0.02,0.0,0.0,0.0,0.02,0.0,0.0,0.0,0.02,-1.89148546875,0.09576171874999999,9.6573778125,0.04,0.0,0.0,0.0,0.04,0.0,0.0,0.0,0.04
1614383758.432685,248,1614383758,431981086,base_imu_link,0.06718661808015403,0.06671735707911622,-0.667072759915392,0.7389510711773757,0.0025,0.0,0.0,0.0,0.0025,0.0,0.0,0.0,0.0025,0.01,-0.05,-0.01,0.02,0.0,0.0,0.0,0.02,0.0,0.0,0.0,0.02,-1.89148546875,0.09576171874999999,9.662357421874999,0.04,0.0,0.0,0.0,0.04,0.0,0.0,0.0,0.04
1614383758.452166,249,1614383758,451375961,base_imu_link,0.06716914921466555,0.06673494420802921,-0.666879280119331,0.7391256850920903,0.0025,0.0,0.0,0.0,0.0025,0.0,0.0,0.0,0.0025,0.01,-0.05,-0.01,0.02,0.0,0.0,0.0,0.02,0.0,0.0,0.0,0.02,-1.89148546875,0.08618554687499999,9.6573778125,0.04,0.0,0.0,0.0,0.04,0.0,0.0,0.0,0.04
1614383758.4723074,250,1614383758,471514940,base_imu_link,0.06713961168127447,0.06675799508378188,-0.6672603707976722,0.7387822684652321,0.0025,0.0,0.0,0.0,0.0025,0.0,0.0,0.0,0.0025,0.01,-0.05,-0.01,0.02,0.0,0.0,0.0,0.02,0.0,0.0,0.0,0.02,-1.89148546875,0.090782109375,9.662357421874999,0.04,0.0,0.0,0.0,0.04,0.0,0.0,0.0,0.04
1614383758.4921856,251,1614383758,491492986,base_imu_link,0.06714543715969958,0.06675213579318198,-0.6673248391720514,0.7387240362000393,0.0025,0.0,0.0,0.0,0.0025,0.0,0.0,0.0,0.0025,0.01,-0.05,-0.01,0.02,0.0,0.0,0.0,0.02,0.0,0.0,0.0,0.02,-1.8960820312499997,0.08618554687499999,9.652781249999999,0.04,0.0,0.0,0.0,0.04,0.0,0.0,0.0,0.04
1614383758.5121799,252,1614383758,511374950,base_imu_link,0.06716291052674705,0.06673455487148125,-0.6675182138014104,0.7385493056520032,0.0025,0.0,0.0,0.0,0.0025,0.0,0.0,0.0,0.0025,0.01,-0.05,-0.01,0.02,0.0,0.0,0.0,0.02,0.0,0.0,0.0,0.02,-1.881909296875,0.08618554687499999,9.6573778125,0.04,0.0,0.0,0.0,0.04,0.0,0.0,0.0,0.04
1614383758.532238,253,1614383758,531550884,base_imu_link,0.06705773710347525,0.06671074586062513,-0.6677109198448009,0.738386798230636,0.0025,0.0,0.0,0.0,0.0025,0.0,0.0,0.0,0.0025,0.01,-0.05,-0.01,0.02,0.0,0.0,0.0,0.02,0.0,0.0,0.0,0.02,-1.8960820312499997,0.09576171874999999,9.6573778125,0.04,0.0,0.0,0.0,0.04,0.0,0.0,0.0,0.04
1614383758.552361,254,1614383758,551671028,base_imu_link,0.06705773710347525,0.06671074586062513,-0.6677109198448009,0.738386798230636,0.0025,0.0,0.0,0.0,0.0025,0.0,0.0,0.0,0.0025,0.01,-0.05,-0.01,0.02,0.0,0.0,0.0,0.02,0.0,0.0,0.0,0.02,-1.9010616406249998,0.08618554687499999,9.648184687499999,0.04,0.0,0.0,0.0,0.04,0.0,0.0,0.0,0.04
1614383758.572275,255,1614383758,571568965,base_imu_link,0.06713342311816121,0.06675766474499625,-0.6678990026318719,0.7382055540170254,0.0025,0.0,0.0,0.0,0.0025,0.0,0.0,0.0,0.0025,0.01,-0.05,-0.01,0.02,0.0,0.0,0.0,0.02,0.0,0.0,0.0,0.02,-1.89148546875,0.08120593749999999,9.652781249999999,0.04,0.0,0.0,0.0,0.04,0.0,0.0,0.0,0.04
1614383758.592288,256,1614383758,591579914,base_imu_link,0.0670515076023088,0.06683350600785037,-0.6676998882021977,0.7383862384265628,0.0025,0.0,0.0,0.0,0.0025,0.0,0.0,0.0,0.0025,0.01,-0.05,-0.01,0.02,0.0,0.0,0.0,0.02,0.0,0.0,0.0,0.02,-1.881909296875,0.08618554687499999,9.6573778125,0.04,0.0,0.0,0.0,0.04,0.0,0.0,0.0,0.04
1614383758.6129568,257,1614383758,612152099,base_imu_link,0.06697581806159592,0.06678655089325414,-0.667511762068839,0.7385674267895359,0.0025,0.0,0.0,0.0,0.0025,0.0,0.0,0.0,0.0025,0.01,-0.05,-0.01,0.02,0.0,0.0,0.0,0.02,0.0,0.0,0.0,0.02,-1.886505859375,0.090782109375,9.662357421874999,0.04,0.0,0.0,0.0,0.04,0.0,0.0,0.0,0.04
1614383758.6345265,258,1614383758,633235931,base_imu_link,0.06696998958053263,0.06679239538166433,-0.6674473073604973,0.738625675367425,0.0025,0.0,0.0,0.0,0.0025,0.0,0.0,0.0,0.0025,0.01,-0.05,-0.01,0.02,0.0,0.0,0.0,0.02,0.0,0.0,0.0,0.02,-1.89148546875,0.09576171874999999,9.66733703125,0.04,0.0,0.0,0.0,0.04,0.0,0.0,0.0,0.04
1614383758.6529644,259,1614383758,652136087,base_imu_link,0.0669583310884335,0.06680408283248071,-0.6673183826955985,0.7387421556478915,0.0025,0.0,0.0,0.0,0.0025,0.0,0.0,0.0,0.0025,0.01,-0.05,-0.01,0.02,0.0,0.0,0.0,0.02,0.0,0.0,0.0,0.02,-1.886505859375,0.08618554687499999,9.66733703125,0.04,0.0,0.0,0.0,0.04,0.0,0.0,0.0,0.04
1614383758.672975,260,1614383758,672153949,base_imu_link,0.06688268252779128,0.0667570723569517,-0.6671301549588462,0.7389232412184645,0.0025,0.0,0.0,0.0,0.0025,0.0,0.0,0.0,0.0025,0.01,-0.05,-0.01,0.02,0.0,0.0,0.0,0.02,0.0,0.0,0.0,0.02,-1.89148546875,0.090782109375,9.662357421874999,0.04,0.0,0.0,0.0,0.04,0.0,0.0,0.0,0.04
1614383758.69286,261,1614383758,692063093,base_imu_link,0.06688268252779128,0.0667570723569517,-0.6671301549588462,0.7389232412184645,0.0025,0.0,0.0,0.0,0.0025,0.0,0.0,0.0,0.0025,0.01,-0.05,-0.01,0.02,0.0,0.0,0.0,0.02,0.0,0.0,0.0,0.02,-1.8960820312499997,0.090782109375,9.66733703125,0.04,0.0,0.0,0.0,0.04,0.0,0.0,0.0,0.04
1614383758.7127862,262,1614383758,712023973,base_imu_link,0.06687685661957021,0.0667629087178656,-0.6670656692012911,0.7389814564934962,0.0025,0.0,0.0,0.0,0.0025,0.0,0.0,0.0,0.0025,0.01,-0.05,-0.01,0.02,0.0,0.0,0.0,0.02,0.0,0.0,0.0,0.02,-1.8960820312499997,0.09576171874999999,9.67193359375,0.04,0.0,0.0,0.0,0.04,0.0,0.0,0.0,0.04
1614383758.7331622,263,1614383758,732247114,base_imu_link,0.06694134466247514,0.06670469600245225,-0.6670714928241624,0.7389756175729639,0.0025,0.0,0.0,0.0,0.0025,0.0,0.0,0.0,0.0025,0.01,-0.05,-0.01,0.02,0.0,0.0,0.0,0.02,0.0,0.0,0.0,0.02,-1.89148546875,0.09576171874999999,9.67193359375,0.04,0.0,0.0,0.0,0.04,0.0,0.0,0.0,0.04
1614383758.7529511,264,1614383758,752140998,base_imu_link,0.06695298580855889,0.06669301151784023,-0.6672004582396138,0.7388591803793529,0.0025,0.0,0.0,0.0,0.0025,0.0,0.0,0.0,0.0025,0.01,-0.05,-0.01,0.02,0.0,0.0,0.0,0.02,0.0,0.0,0.0,0.02,-1.881909296875,0.09576171874999999,9.6573778125,0.04,0.0,0.0,0.0,0.04,0.0,0.0,0.0,0.04
1614383758.7732751,265,1614383758,772373914,base_imu_link,0.06696462491513808,0.06668132500164291,-0.6673294033309771,0.7387427206788045,0.0025,0.0,0.0,0.0,0.0025,0.0,0.0,0.0,0.0025,0.01,-0.05,-0.01,0.02,0.0,0.0,0.0,0.02,0.0,0.0,0.0,0.02,-1.89148546875,0.08618554687499999,9.66733703125,0.04,0.0,0.0,0.0,0.04,0.0,0.0,0.0,0.04
1614383758.7929611,266,1614383758,792274951,base_imu_link,0.06696462491513808,0.06668132500164291,-0.6673294033309771,0.7387427206788045,0.0025,0.0,0.0,0.0,0.0025,0.0,0.0,0.0,0.0025,0.01,-0.05,-0.01,0.02,0.0,0.0,0.0,0.02,0.0,0.0,0.0,0.02,-1.886505859375,0.090782109375,9.6573778125,0.04,0.0,0.0,0.0,0.04,0.0,0.0,0.0,0.04
1614383758.8128924,267,1614383758,812285900,base_imu_link,0.06697044370350266,0.06667548098181099,-0.6673938682538983,0.7386844823895371,0.0025,0.0,0.0,0.0,0.0025,0.0,0.0,0.0,0.0025,0.01,-0.05,-0.01,0.02,0.0,0.0,0.0,0.02,0.0,0.0,0.0,0.02,-1.8960820312499997,0.08618554687499999,9.662357421874999,0.04,0.0,0.0,0.0,0.04,0.0,0.0,0.0,0.04
1614383758.8328695,268,1614383758,832243919,base_imu_link,0.0669059810668245,0.06673372182989892,-0.6673880471792908,0.7386903238505484,0.0025,0.0,0.0,0.0,0.0025,0.0,0.0,0.0,0.0025,0.01,-0.05,-0.01,0.02,0.0,0.0,0.0,0.02,0.0,0.0,0.0,0.02,-1.881909296875,0.08618554687499999,9.652781249999999,0.04,0.0,0.0,0.0,0.04,0.0,0.0,0.0,0.04
1614383758.8530183,269,1614383758,852308034,base_imu_link,0.06692344962131373,0.06671620359828703,-0.6675814129806111,0.7385155767558501,0.0025,0.0,0.0,0.0,0.0025,0.0,0.0,0.0,0.0025,0.01,-0.05,-0.01,0.02,0.0,0.0,0.0,0.02,0.0,0.0,0.0,0.02,-1.886505859375,0.08618554687499999,9.6573778125,0.04,0.0,0.0,0.0,0.04,0.0,0.0,0.0,0.04
1614383758.87331,270,1614383758,872493982,base_imu_link,0.06693509277612442,0.06670452223677359,-0.667710298096027,0.73839905057139,0.0025,0.0,0.0,0.0,0.0025,0.0,0.0,0.0,0.0025,0.01,-0.05,-0.01,0.02,0.0,0.0,0.0,0.02,0.0,0.0,0.0,0.02,-1.881909296875,0.090782109375,9.6573778125,0.04,0.0,0.0,0.0,0.04,0.0,0.0,0.0,0.04
1614383758.8931534,271,1614383758,892364025,base_imu_link,0.06687688459820076,0.06664002958901366,-0.6677154954156045,0.7384054482089825,0.0025,0.0,0.0,0.0,0.0025,0.0,0.0,0.0,0.0025,0.01,-0.05,-0.01,0.02,0.0,0.0,0.0,0.02,0.0,0.0,0.0,0.02,-1.886505859375,0.08618554687499999,9.6573778125,0.04,0.0,0.0,0.0,0.04,0.0,0.0,0.0,0.04
1614383758.913058,272,1614383758,912358999,base_imu_link,0.06688851445884805,0.06662835635579008,-0.6678443613079206,0.7382888986244003,0.0025,0.0,0.0,0.0,0.0025,0.0,0.0,0.0,0.0025,0.01,-0.05,-0.01,0.02,0.0,0.0,0.0,0.02,0.0,0.0,0.0,0.02,-1.89148546875,0.08120593749999999,9.6573778125,0.04,0.0,0.0,0.0,0.04,0.0,0.0,0.0,0.04
1614383758.9335315,273,1614383758,932636976,base_imu_link,0.06680662553323724,0.06670412873637281,-0.6676452363506409,0.7384695473563415,0.0025,0.0,0.0,0.0,0.0025,0.0,0.0,0.0,0.0025,0.01,-0.05,-0.01,0.02,0.0,0.0,0.0,0.02,0.0,0.0,0.0,0.02,-1.886505859375,0.08618554687499999,9.652781249999999,0.04,0.0,0.0,0.0,0.04,0.0,0.0,0.0,0.04
1614383758.9531717,274,1614383758,952433109,base_imu_link,0.06680662553323724,0.06670412873637281,-0.6676452363506409,0.7384695473563415,0.0025,0.0,0.0,0.0,0.0025,0.0,0.0,0.0,0.0025,0.01,-0.05,-0.01,0.02,0.0,0.0,0.0,0.02,0.0,0.0,0.0,0.02,-1.89148546875,0.090782109375,9.648184687499999,0.04,0.0,0.0,0.0,0.04,0.0,0.0,0.0,0.04
1614383758.9733973,275,1614383758,972596883,base_imu_link,0.06688230633480349,0.06675111855063215,-0.6678333402807618,0.7382883412874791,0.0025,0.0,0.0,0.0,0.0025,0.0,0.0,0.0,0.0025,0.01,-0.05,-0.01,0.02,0.0,0.0,0.0,0.02,0.0,0.0,0.0,0.02,-1.881909296875,0.08618554687499999,9.652781249999999,0.04,0.0,0.0,0.0,0.04,0.0,0.0,0.0,0.04
1614383758.99346,276,1614383758,992593050,base_imu_link,0.06683572433957255,0.06667497249809295,-0.6679673909109792,0.738178161878257,0.0025,0.0,0.0,0.0,0.0025,0.0,0.0,0.0,0.0025,0.01,-0.05,-0.01,0.02,0.0,0.0,0.0,0.02,0.0,0.0,0.0,0.02,-1.8769296874999999,0.076609375,9.652781249999999,0.04,0.0,0.0,0.0,0.04,0.0,0.0,0.0,0.04
1614383759.013348,277,1614383759,12541055,base_imu_link,0.06677130588820727,0.06673326339547625,-0.6679615698785616,0.7381839915847139,0.0025,0.0,0.0,0.0,0.0025,0.0,0.0,0.0,0.0025,0.01,-0.05,-0.01,0.02,0.0,0.0,0.0,0.02,0.0,0.0,0.0,0.02,-1.886505859375,0.08618554687499999,9.648184687499999,0.04,0.0,0.0,0.0,0.04,0.0,0.0,0.0,0.04
1614383759.0337622,278,1614383759,32987117,base_imu_link,0.06677130588820727,0.06673326339547625,-0.6679615698785616,0.7381839915847139,0.0025,0.0,0.0,0.0,0.0025,0.0,0.0,0.0,0.0025,0.01,-0.05,-0.01,0.02,0.0,0.0,0.0,0.02,0.0,0.0,0.0,0.02,-1.89148546875,0.08618554687499999,9.643205078125,0.04,0.0,0.0,0.0,0.04,0.0,0.0,0.0,0.04
1614383759.053313,279,1614383759,52741050,base_imu_link,0.06675383287268749,0.06675074179536779,-0.6677682908730072,0.7383588382156177,0.0025,0.0,0.0,0.0,0.0025,0.0,0.0,0.0,0.0025,0.01,-0.05,-0.01,0.02,0.0,0.0,0.0,0.02,0.0,0.0,0.0,0.02,-1.886505859375,0.090782109375,9.652781249999999,0.04,0.0,0.0,0.0,0.04,0.0,0.0,0.0,0.04
1614383759.0738406,280,1614383759,73013067,base_imu_link,0.06674218165380287,0.06676239152035625,-0.6676394127750882,0.7384753745223391,0.0025,0.0,0.0,0.0,0.0025,0.0,0.0,0.0,0.0025,0.01,-0.05,-0.01,0.02,0.0,0.0,0.0,0.02,0.0,0.0,0.0,0.02,-1.881909296875,0.10074132812499999,9.652781249999999,0.04,0.0,0.0,0.0,0.04,0.0,0.0,0.0,0.04
1614383759.0934083,281,1614383759,92745065,base_imu_link,0.06680662553323724,0.06670412873637281,-0.6676452363506409,0.7384695473563415,0.0025,0.0,0.0,0.0,0.0025,0.0,0.0,0.0,0.0025,0.01,-0.05,-0.01,0.02,0.0,0.0,0.0,0.02,0.0,0.0,0.0,0.02,-1.886505859375,0.10533789062499999,9.652781249999999,0.04,0.0,0.0,0.0,0.04,0.0,0.0,0.0,0.04
1614383759.113601,282,1614383759,112904071,base_imu_link,0.06687688459820076,0.06664002958901366,-0.6677154954156045,0.7384054482089825,0.0025,0.0,0.0,0.0,0.0025,0.0,0.0,0.0,0.0025,0.01,-0.05,-0.01,0.02,0.0,0.0,0.0,0.02,0.0,0.0,0.0,0.02,-1.886505859375,0.090782109375,9.652781249999999,0.04,0.0,0.0,0.0,0.04,0.0,0.0,0.0,0.04
1614383759.134174,283,1614383759,133466958,base_imu_link,0.06685943598761603,0.06665753563254158,-0.6675221584412748,0.7385802304101539,0.0025,0.0,0.0,0.0,0.0025,0.0,0.0,0.0,0.0025,0.01,-0.05,-0.01,0.02,0.0,0.0,0.0,0.02,0.0,0.0,0.0,0.02,-1.886505859375,0.09576171874999999,9.652781249999999,0.04,0.0,0.0,0.0,0.04,0.0,0.0,0.0,0.04
1614383759.1534932,284,1614383759,152909040,base_imu_link,0.06685943598761603,0.06665753563254158,-0.6675221584412748,0.7385802304101539,0.0025,0.0,0.0,0.0,0.0025,0.0,0.0,0.0,0.0025,0.01,-0.05,-0.01,0.02,0.0,0.0,0.0,0.02,0.0,0.0,0.0,0.02,-1.886505859375,0.08618554687499999,9.648184687499999,0.04,0.0,0.0,0.0,0.04,0.0,0.0,0.0,0.04
1614383759.1737528,285,1614383759,172974109,base_imu_link,0.06685361876570128,0.06666336996519114,-0.6674577026155668,0.7386384798952489,0.0025,0.0,0.0,0.0,0.0025,0.0,0.0,0.0,0.0025,0.01,-0.05,-0.01,0.02,0.0,0.0,0.0,0.02,0.0,0.0,0.0,0.02,-1.89148546875,0.08618554687499999,9.662357421874999,0.04,0.0,0.0,0.0,0.04,0.0,0.0,0.0,0.04
1614383759.1943314,286,1614383759,193267107,base_imu_link,0.06688269978319485,0.06663419322612607,-0.6677799309044801,0.738347176228109,0.0025,0.0,0.0,0.0,0.0025,0.0,0.0,0.0,0.0025,0.01,-0.05,-0.01,0.02,0.0,0.0,0.0,0.02,0.0,0.0,0.0,0.02,-1.89148546875,0.08120593749999999,9.6573778125,0.04,0.0,0.0,0.0,0.04,0.0,0.0,0.0,0.04
1614383759.2137885,287,1614383759,213001012,base_imu_link,0.06680080424550822,0.06670995846026342,-0.6675807901833826,0.738527807582432,0.0025,0.0,0.0,0.0,0.0025,0.0,0.0,0.0,0.0025,0.01,-0.05,-0.01,0.02,0.0,0.0,0.0,0.02,0.0,0.0,0.0,0.02,-1.886505859375,0.08120593749999999,9.6573778125,0.04,0.0,0.0,0.0,0.04,0.0,0.0,0.0,0.04
1614383759.2340426,288,1614383759,233165979,base_imu_link,0.06681826658236628,0.06669246776469304,-0.667774113431439,0.7383530100333032,0.0025,0.0,0.0,0.0,0.0025,0.0,0.0,0.0,0.0025,0.01,-0.05,-0.01,0.02,0.0,0.0,0.0,0.02,0.0,0.0,0.0,0.02,-1.886505859375,0.08618554687499999,9.652781249999999,0.04,0.0,0.0,0.0,0.04,0.0,0.0,0.0,0.04
1614383759.254988,289,1614383759,253474950,base_imu_link,0.06678333733019529,0.0667274445836054,-0.6673874211800608,0.7387025545136632,0.0025,0.0,0.0,0.0,0.0025,0.0,0.0,0.0,0.0025,0.01,-0.05,-0.01,0.02,0.0,0.0,0.0,0.02,0.0,0.0,0.0,0.02,-1.886505859375,0.08120593749999999,9.6573778125,0.04,0.0,0.0,0.0,0.04,0.0,0.0,0.0,0.04
1614383759.2740464,290,1614383759,273247957,base_imu_link,0.06672470101355599,0.06677986229454291,-0.6674460574967,0.7386501368027256,0.0025,0.0,0.0,0.0,0.0025,0.0,0.0,0.0,0.0025,0.01,-0.05,-0.01,0.02,0.0,0.0,0.0,0.02,0.0,0.0,0.0,0.02,-1.881909296875,0.08120593749999999,9.662357421874999,0.04,0.0,0.0,0.0,0.04,0.0,0.0,0.0,0.04
1614383759.293972,291,1614383759,293216943,base_imu_link,0.06672470101355599,0.06677986229454291,-0.6674460574967,0.7386501368027256,0.0025,0.0,0.0,0.0,0.0025,0.0,0.0,0.0,0.0025,0.01,-0.05,-0.01,0.02,0.0,0.0,0.0,0.02,0.0,0.0,0.0,0.02,-1.881909296875,0.08120593749999999,9.652781249999999,0.04,0.0,0.0,0.0,0.04,0.0,0.0,0.0,0.04
1614383759.3141499,292,1614383759,313288927,base_imu_link,0.06668397748008421,0.0666978941927837,-0.6676446157088795,0.7384817568312887,0.0025,0.0,0.0,0.0,0.0025,0.0,0.0,0.0,0.0025,0.01,-0.05,-0.01,0.02,0.0,0.0,0.0,0.02,0.0,0.0,0.0,0.02,-1.886505859375,0.08120593749999999,9.66733703125,0.04,0.0,0.0,0.0,0.04,0.0,0.0,0.0,0.04
1614383759.334524,293,1614383759,333602905,base_imu_link,0.06660788037368202,0.06676778320770509,-0.6675098921129391,0.7386040869972402,0.0025,0.0,0.0,0.0,0.0025,0.0,0.0,0.0,0.0025,0.01,-0.05,-0.01,0.02,0.0,0.0,0.0,0.02,0.0,0.0,0.0,0.02,-1.8960820312499997,0.076609375,9.662357421874999,0.04,0.0,0.0,0.0,0.04,0.0,0.0,0.0,0.04
1614383759.3543139,294,1614383759,353431940,base_imu_link,0.06664274091514422,0.06685555701628133,-0.6672468247650097,0.738830666946339,0.0025,0.0,0.0,0.0,0.0025,0.0,0.0,0.0,0.0025,0.01,-0.05,-0.01,0.02,0.0,0.0,0.0,0.02,0.0,0.0,0.0,0.02,-1.89148546875,0.08120593749999999,9.6573778125,0.04,0.0,0.0,0.0,0.04,0.0,0.0,0.0,0.04
1614383759.3743665,295,1614383759,373377084,base_imu_link,0.0666602413750314,0.06683810769660399,-0.6674402273129059,0.7386559568187725,0.0025,0.0,0.0,0.0,0.0025,0.0,0.0,0.0,0.0025,0.01,-0.05,-0.01,0.02,0.0,0.0,0.0,0.02,0.0,0.0,0.0,0.02,-1.9056582031249998,0.08120593749999999,9.662357421874999,0.04,0.0,0.0,0.0,0.04,0.0,0.0,0.0,0.04
1614383759.3943827,296,1614383759,393467903,base_imu_link,0.06664812542983917,0.06696668013575184,-0.6673647120567984,0.7387136334396645,0.0025,0.0,0.0,0.0,0.0025,0.0,0.0,0.0,0.0025,0.01,-0.05,-0.01,0.02,0.0,0.0,0.0,0.02,0.0,0.0,0.0,0.02,-1.9010616406249998,0.076609375,9.6573778125,0.04,0.0,0.0,0.0,0.04,0.0,0.0,0.0,0.04
1614383759.4141254,297,1614383759,413438081,base_imu_link,0.06671215650622496,0.0670253743696478,-0.6674239517534617,0.7386490073036653,0.0025,0.0,0.0,0.0,0.0025,0.0,0.0,0.0,0.0025,0.01,-0.05,-0.01,0.02,0.0,0.0,0.0,0.02,0.0,0.0,0.0,0.02,-1.89148546875,0.08120593749999999,9.652781249999999,0.04,0.0,0.0,0.0,0.04,0.0,0.0,0.0,0.04
1614383759.4344263,298,1614383759,433492898,base_imu_link,0.06670630718488565,0.0670311958483374,-0.6673594899262113,0.7387072482183484,0.0025,0.0,0.0,0.0,0.0025,0.0,0.0,0.0,0.0025,0.01,-0.05,-0.01,0.02,0.0,0.0,0.0,0.02,0.0,0.0,0.0,0.02,-1.89148546875,0.08618554687499999,9.6573778125,0.04,0.0,0.0,0.0,0.04,0.0,0.0,0.0,0.04
1614383759.4545503,299,1614383759,453605890,base_imu_link,0.06671215650622496,0.0670253743696478,-0.6674239517534617,0.7386490073036653,0.0025,0.0,0.0,0.0,0.0025,0.0,0.0,0.0,0.0025,0.01,-0.05,-0.01,0.02,0.0,0.0,0.0,0.02,0.0,0.0,0.0,0.02,-1.886505859375,0.08618554687499999,9.652781249999999,0.04,0.0,0.0,0.0,0.04,0.0,0.0,0.0,0.04
1614383759.4746606,300,1614383759,473856925,base_imu_link,0.06674139549139883,0.06699625932067538,-0.6677461846390363,0.7383577183621146,0.0025,0.0,0.0,0.0,0.0025,0.0,0.0,0.0,0.0025,0.01,-0.05,-0.01,0.02,0.0,0.0,0.0,0.02,0.0,0.0,0.0,0.02,-1.89148546875,0.090782109375,9.652781249999999,0.04,0.0,0.0,0.0,0.04,0.0,0.0,0.0,0.04
1614383759.4943643,301,1614383759,493629932,base_imu_link,0.0668058291033993,0.06693798721819859,-0.6677520286229982,0.7383518912651708,0.0025,0.0,0.0,0.0,0.0025,0.0,0.0,0.0,0.0025,0.01,-0.05,-0.01,0.02,0.0,0.0,0.0,0.02,0.0,0.0,0.0,0.02,-1.8960820312499997,0.090782109375,9.652781249999999,0.04,0.0,0.0,0.0,0.04,0.0,0.0,0.0,0.04
1614383759.514516,302,1614383759,513700962,base_imu_link,0.0668640435648628,0.06700247240404725,-0.6677468036920291,0.738345498075921,0.0025,0.0,0.0,0.0,0.0025,0.0,0.0,0.0,0.0025,0.01,-0.05,-0.01,0.02,0.0,0.0,0.0,0.02,0.0,0.0,0.0,0.02,-1.89148546875,0.08120593749999999,9.6573778125,0.04,0.0,0.0,0.0,0.04,0.0,0.0,0.0,0.04
1614383759.5345685,303,1614383759,533874988,base_imu_link,0.06685234840902027,0.06701414136059601,-0.6676179279227309,0.738462030632625,0.0025,0.0,0.0,0.0,0.0025,0.0,0.0,0.0,0.0025,0.01,-0.05,-0.01,0.02,0.0,0.0,0.0,0.02,0.0,0.0,0.0,0.02,-1.8960820312499997,0.090782109375,9.6573778125,0.04,0.0,0.0,0.0,0.04,0.0,0.0,0.0,0.04
1614383759.5546935,304,1614383759,553680896,base_imu_link,0.0668289519883746,0.06703747314923576,-0.6673601153776458,0.7386950282579653,0.0025,0.0,0.0,0.0,0.0025,0.0,0.0,0.0,0.0025,0.01,-0.05,-0.01,0.02,0.0,0.0,0.0,0.02,0.0,0.0,0.0,0.02,-1.8960820312499997,0.090782109375,9.6573778125,0.04,0.0,0.0,0.0,0.04,0.0,0.0,0.0,0.04
1614383759.5748281,305,1614383759,574059009,base_imu_link,0.06682310161077289,0.06704330482020784,-0.6672956495345527,0.7387532636016984,0.0025,0.0,0.0,0.0,0.0025,0.0,0.0,0.0,0.0025,0.01,-0.05,-0.01,0.02,0.0,0.0,0.0,0.02,0.0,0.0,0.0,0.02,-1.89148546875,0.08618554687499999,9.662357421874999,0.04,0.0,0.0,0.0,0.04,0.0,0.0,0.0,0.04
1614383759.5947297,306,1614383759,593858957,base_imu_link,0.06681725072428414,0.06704913598061596,-0.6672311786097126,0.7388114933195036,0.0025,0.0,0.0,0.0,0.0025,0.0,0.0,0.0,0.0025,0.01,-0.05,-0.01,0.02,0.0,0.0,0.0,0.02,0.0,0.0,0.0,0.02,-1.89148546875,0.090782109375,9.6573778125,0.04,0.0,0.0,0.0,0.04,0.0,0.0,0.0,0.04
1614383759.6147547,307,1614383759,613995075,base_imu_link,0.0668817239353311,0.06699090882069218,-0.6672370272099946,0.738805659601214,0.0025,0.0,0.0,0.0,0.0025,0.0,0.0,0.0,0.0025,0.01,-0.05,-0.01,0.02,0.0,0.0,0.0,0.02,0.0,0.0,0.0,0.02,-1.886505859375,0.09576171874999999,9.66733703125,0.04,0.0,0.0,0.0,0.04,0.0,0.0,0.0,0.04
1614383759.634844,308,1614383759,634129047,base_imu_link,0.0668700307974453,0.06700258086322386,-0.6671080711351239,0.7389221031781296,0.0025,0.0,0.0,0.0,0.0025,0.0,0.0,0.0,0.0025,0.01,-0.05,-0.01,0.02,0.0,0.0,0.0,0.02,0.0,0.0,0.0,0.02,-1.886505859375,0.090782109375,9.66733703125,0.04,0.0,0.0,0.0,0.04,0.0,0.0,0.0,0.04
1614383759.655293,309,1614383759,654078006,base_imu_link,0.06681187319061181,0.06693804444500608,-0.667113284853149,0.7389285059997898,0.0025,0.0,0.0,0.0,0.0025,0.0,0.0,0.0,0.0025,0.01,-0.05,-0.01,0.02,0.0,0.0,0.0,0.02,0.0,0.0,0.0,0.02,-1.8960820312499997,0.090782109375,9.662357421874999,0.04,0.0,0.0,0.0,0.04,0.0,0.0,0.0,0.04
1614383759.675021,310,1614383759,674293041,base_imu_link,0.06690510409874509,0.06696755861400515,-0.6674948783802016,0.7385727049350089,0.0025,0.0,0.0,0.0,0.0025,0.0,0.0,0.0,0.0025,0.01,-0.05,-0.01,0.02,0.0,0.0,0.0,0.02,0.0,0.0,0.0,0.02,-1.89148546875,0.09576171874999999,9.6573778125,0.04,0.0,0.0,0.0,0.04,0.0,0.0,0.0,0.04
1614383759.695039,311,1614383759,694181919,base_imu_link,0.06691719869455467,0.06683896265638947,-0.6675703814358802,0.7385150150264005,0.0025,0.0,0.0,0.0,0.0025,0.0,0.0,0.0,0.0025,0.01,-0.05,-0.01,0.02,0.0,0.0,0.0,0.02,0.0,0.0,0.0,0.02,-1.8960820312499997,0.090782109375,9.662357421874999,0.04,0.0,0.0,0.0,0.04,0.0,0.0,0.0,0.04
1614383759.714691,312,1614383759,714001893,base_imu_link,0.06698707099201757,0.06689177356061493,-0.66769405333614,0.7383920869628694,0.0025,0.0,0.0,0.0,0.0025,0.0,0.0,0.0,0.0025,0.01,-0.05,-0.01,0.02,0.0,0.0,0.0,0.02,0.0,0.0,0.0,0.02,-1.8960820312499997,0.090782109375,9.67653015625,0.04,0.0,0.0,0.0,0.04,0.0,0.0,0.0,0.04
1614383759.7348995,313,1614383759,734091043,base_imu_link,0.06696955647123994,0.06690930844224585,-0.6675007198605113,0.7385668635509754,0.0025,0.0,0.0,0.0,0.0025,0.0,0.0,0.0,0.0025,0.01,-0.05,-0.01,0.02,0.0,0.0,0.0,0.02,0.0,0.0,0.0,0.02,-1.8960820312499997,0.10074132812499999,9.67193359375,0.04,0.0,0.0,0.0,0.04,0.0,0.0,0.0,0.04
1614383759.7550895,314,1614383759,754292964,base_imu_link,0.0670340083337324,0.06685105776094304,-0.6675065562575121,0.7385610165424336,0.0025,0.0,0.0,0.0,0.0025,0.0,0.0,0.0,0.0025,0.01,-0.05,-0.01,0.02,0.0,0.0,0.0,0.02,0.0,0.0,0.0,0.02,-1.8960820312499997,0.11031749999999999,9.66733703125,0.04,0.0,0.0,0.0,0.04,0.0,0.0,0.0,0.04
1614383759.7751057,315,1614383759,774276971,base_imu_link,0.06710428820218886,0.0667869508709969,-0.6675768361259686,0.7384969096524873,0.0025,0.0,0.0,0.0,0.0025,0.0,0.0,0.0,0.0025,0.01,-0.05,-0.01,0.02,0.0,0.0,0.0,0.02,0.0,0.0,0.0,0.02,-1.8960820312499997,0.10074132812499999,9.66733703125,0.04,0.0,0.0,0.0,0.04,0.0,0.0,0.0,0.04
1614383759.795188,316,1614383759,794380903,base_imu_link,0.06713330719136838,0.0668807514027173,-0.667249339499092,0.7387817019224168,0.0025,0.0,0.0,0.0,0.0025,0.0,0.0,0.0,0.0025,0.01,-0.05,-0.01,0.02,0.0,0.0,0.0,0.02,0.0,0.0,0.0,0.02,-1.8960820312499997,0.09576171874999999,9.67193359375,0.04,0.0,0.0,0.0,0.04,0.0,0.0,0.0,0.04
1614383759.8152616,317,1614383759,814449071,base_imu_link,0.06719777780142204,0.0668225226585981,-0.6672551734049784,0.7387758406231107,0.0025,0.0,0.0,0.0,0.0025,0.0,0.0,0.0,0.0025,0.01,-0.05,-0.01,0.02,0.0,0.0,0.0,0.02,0.0,0.0,0.0,0.02,-1.89148546875,0.090782109375,9.662357421874999,0.04,0.0,0.0,0.0,0.04,0.0,0.0,0.0,0.04
1614383759.835213,318,1614383759,834372043,base_imu_link,0.06715664888726307,0.06685731338362001,-0.6675071823057417,0.7385487429598716,0.0025,0.0,0.0,0.0,0.0025,0.0,0.0,0.0,0.0025,0.01,-0.05,-0.01,0.02,0.0,0.0,0.0,0.02,0.0,0.0,0.0,0.02,-1.89148546875,0.090782109375,9.6573778125,0.04,0.0,0.0,0.0,0.04,0.0,0.0,0.0,0.04
1614383759.8558264,319,1614383759,854527950,base_imu_link,0.06714543715969958,0.06675213579318198,-0.6673248391720514,0.7387240362000393,0.0025,0.0,0.0,0.0,0.0025,0.0,0.0,0.0,0.0025,0.01,-0.05,-0.01,0.02,0.0,0.0,0.0,0.02,0.0,0.0,0.0,0.02,-1.9489425,0.124490234375,9.729390624999999,0.04,0.0,0.0,0.0,0.04,0.0,0.0,0.0,0.04
1614383759.875982,320,1614383759,875250101,base_imu_link,0.06654583706216137,0.06624126482602528,-0.6672366620780953,0.7389039065959971,0.0025,0.0,0.0,0.0,0.0025,0.0,0.0,0.0,0.0025,-0.01,-0.15,-0.02,0.02,0.0,0.0,0.0,0.02,0.0,0.0,0.0,0.02,-1.6425049999999999,-0.2681328125,10.035828124999998,0.04,0.0,0.0,0.0,0.04,0.0,0.0,0.0,0.04
1614383759.8956277,321,1614383759,894784927,base_imu_link,0.06329266546073903,0.06566391285529194,-0.6677043008095481,0.7388188246978011,0.0025,0.0,0.0,0.0,0.0025,0.0,0.0,0.0,0.0025,-0.02,-0.17,-0.04,0.02,0.0,0.0,0.0,0.02,0.0,0.0,0.0,0.02,0.35431835937499995,0.19152343749999998,10.275232421875,0.04,0.0,0.0,0.0,0.04,0.0,0.0,0.0,0.04
1614383759.91565,322,1614383759,914908885,base_imu_link,0.05646418499095972,0.057419689911983596,-0.6685168243450899,0.7393240362596595,0.0025,0.0,0.0,0.0,0.0025,0.0,0.0,0.0,0.0025,-0.01,-0.06,-0.03,0.02,0.0,0.0,0.0,0.02,0.0,0.0,0.0,0.02,1.920213984375,0.0720128125,10.09788171875,0.04,0.0,0.0,0.0,0.04,0.0,0.0,0.0,0.04
1614383759.9360225,323,1614383759,935237884,base_imu_link,0.046228913115751294,0.04578631128869759,-0.6695659432560161,0.739897255652697,0.0025,0.0,0.0,0.0,0.0025,0.0,0.0,0.0,0.0025,0.02,0.08,-0.02,0.02,0.0,0.0,0.0,0.02,0.0,0.0,0.0,0.02,-0.646200078125,0.45965625,9.839708125,0.04,0.0,0.0,0.0,0.04,0.0,0.0,0.0,0.04
1614383759.9555974,324,1614383759,954803943,base_imu_link,0.045701439293538974,0.04215848259530664,-0.669196168307338,0.7404799316082354,0.0025,0.0,0.0,0.0,0.0025,0.0,0.0,0.0,0.0025,0.01,-0.0,0.01,0.02,0.0,0.0,0.0,0.02,0.0,0.0,0.0,0.02,-1.9535390624999998,0.47880859374999996,9.8780128125,0.04,0.0,0.0,0.0,0.04,0.0,0.0,0.0,0.04
1614383759.9754624,325,1614383759,974766969,base_imu_link,0.04865829044719553,0.04278079995811348,-0.6686008758872088,0.7407935223046686,0.0025,0.0,0.0,0.0,0.0025,0.0,0.0,0.0,0.0025,0.01,-0.14,-0.0,0.02,0.0,0.0,0.0,0.02,0.0,0.0,0.0,0.02,-2.092585078125,0.253960078125,10.007099609374999,0.04,0.0,0.0,0.0,0.04,0.0,0.0,0.0,0.04
1614383759.996473,326,1614383759,995299100,base_imu_link,0.049940444164820144,0.04420418362326364,-0.6685275835582922,0.7406907669253964,0.0025,0.0,0.0,0.0,0.0025,0.0,0.0,0.0,0.0025,-0.04,-0.21,-0.06,0.02,0.0,0.0,0.0,0.02,0.0,0.0,0.0,0.02,0.6894843749999999,-0.06243664062499999,9.5807684375,0.04,0.0,0.0,0.0,0.04,0.0,0.0,0.0,0.04
1614383760.0160408,327,1614383760,15348911,base_imu_link,0.043969540152639555,0.039153028953523863,-0.6686389133428455,0.7412528066902875,0.0025,0.0,0.0,0.0,0.0025,0.0,0.0,0.0,0.0025,0.0,0.17,-0.04,0.02,0.0,0.0,0.0,0.02,0.0,0.0,0.0,0.02,0.6032988281249999,-1.0870870312499998,9.911337890625,0.04,0.0,0.0,0.0,0.04,0.0,0.0,0.0,0.04
1614383760.0362058,328,1614383760,35510063,base_imu_link,0.0347921953192008,0.03686808279824672,-0.6690898411393399,0.7414506268793527,0.0025,0.0,0.0,0.0,0.0025,0.0,0.0,0.0,0.0025,0.09,0.08,0.01,0.02,0.0,0.0,0.0,0.02,0.0,0.0,0.0,0.02,-4.764337031249999,0.4550596875,9.743946406249998,0.04,0.0,0.0,0.0,0.04,0.0,0.0,0.0,0.04
1614383760.0558298,329,1614383760,55102109,base_imu_link,0.04494002375753079,0.04578797122905298,-0.6675614722333693,0.7417853710777913,0.0025,0.0,0.0,0.0,0.0025,0.0,0.0,0.0,0.0025,-0.02,-0.22,0.01,0.02,0.0,0.0,0.0,0.02,0.0,0.0,0.0,0.02,-0.162794921875,0.45008007812499995,9.0828075,0.04,0.0,0.0,0.0,0.04,0.0,0.0,0.0,0.04
1614383760.0755625,330,1614383760,74769973,base_imu_link,0.0430887033346572,0.040894194589793036,-0.6675735565574694,0.7421701793247969,0.0025,0.0,0.0,0.0,0.0025,0.0,0.0,0.0,0.0025,0.03,-0.07,-0.05,0.02,0.0,0.0,0.0,0.02,0.0,0.0,0.0,0.02,-3.1363878124999998,0.004979609375,10.05498046875,0.04,0.0,0.0,0.0,0.04,0.0,0.0,0.0,0.04
1614383760.0964282,331,1614383760,95422029,base_imu_link,0.04840191385801729,0.04771106159727695,-0.6672725392312037,0.7417063217501142,0.0025,0.0,0.0,0.0,0.0025,0.0,0.0,0.0,0.0025,-0.01,-0.02,-0.04,0.02,0.0,0.0,0.0,0.02,0.0,0.0,0.0,0.02,1.556319453125,-0.24898046875,9.413376953124999,0.04,0.0,0.0,0.0,0.04,0.0,0.0,0.0,0.04
1614383760.1159263,332,1614383760,115257024,base_imu_link,0.03852296030267538,0.037616965432655004,-0.6679107758391651,0.7422911429884378,0.0025,0.0,0.0,0.0,0.0025,0.0,0.0,0.0,0.0025,0.12,-0.04,-0.06,0.02,0.0,0.0,0.0,0.02,0.0,0.0,0.0,0.02,-4.524932734375,0.564994140625,10.256080078124999,0.04,0.0,0.0,0.0,0.04,0.0,0.0,0.0,0.04
1614383760.135648,333,1614383760,135018110,base_imu_link,0.04688611497726838,0.043687420902797335,-0.667441730896173,0.74189934447708,0.0025,0.0,0.0,0.0,0.0025,0.0,0.0,0.0,0.0025,0.05,-0.28,-0.04,0.02,0.0,0.0,0.0,0.02,0.0,0.0,0.0,0.02,3.2750507812499996,0.18654382812499998,8.848382812499999,0.04,0.0,0.0,0.0,0.04,0.0,0.0,0.0,0.04
1614383760.1563854,334,1614383760,155626058,base_imu_link,0.03647163326089113,0.03044272459637676,-0.667576086926404,0.7430243795801471,0.0025,0.0,0.0,0.0,0.0025,0.0,0.0,0.0,0.0025,0.08,0.4,-0.03,0.02,0.0,0.0,0.0,0.02,0.0,0.0,0.0,0.02,-4.563237421875,-0.42135156249999994,10.375590703124999,0.04,0.0,0.0,0.0,0.04,0.0,0.0,0.0,0.04
1614383760.176005,335,1614383760,175292015,base_imu_link,0.04114665904352667,0.03831364761216404,-0.6667926159732757,0.743119522109144,0.0025,0.0,0.0,0.0,0.0025,0.0,0.0,0.0,0.0025,0.03,-0.41,-0.01,0.02,0.0,0.0,0.0,0.02,0.0,0.0,0.0,0.02,-3.7301104687499995,1.1108359374999999,9.71483484375,0.04,0.0,0.0,0.0,0.04,0.0,0.0,0.0,0.04
1614383760.1961517,336,1614383760,195509910,base_imu_link,0.051923776252209515,0.04387930043529819,-0.6651433196267316,0.7436147475736015,0.0025,0.0,0.0,0.0,0.0025,0.0,0.0,0.0,0.0025,-0.01,-0.07,-0.03,0.02,0.0,0.0,0.0,0.02,0.0,0.0,0.0,0.02,3.4186933593749997,-0.2681328125,8.676011718749999,0.04,0.0,0.0,0.0,0.04,0.0,0.0,0.0,0.04
1614383760.216056,337,1614383760,215389013,base_imu_link,0.03846611627131962,0.02973932729356276,-0.6654764968952616,0.7448335132035471,0.0025,0.0,0.0,0.0,0.0025,0.0,0.0,0.0,0.0025,0.15,0.16,-0.02,0.02,0.0,0.0,0.0,0.02,0.0,0.0,0.0,0.02,-4.414615234375,0.258556640625,10.677431640624999,0.04,0.0,0.0,0.0,0.04,0.0,0.0,0.0,0.04
1614383760.2357867,338,1614383760,235060930,base_imu_link,0.04445501296080377,0.03607655760673009,-0.6651107685852833,0.7445467744378435,0.0025,0.0,0.0,0.0,0.0025,0.0,0.0,0.0,0.0025,0.0,-0.29,-0.01,0.02,0.0,0.0,0.0,0.02,0.0,0.0,0.0,0.02,1.4747304687499998,0.37347070312499997,8.245083984374999,0.04,0.0,0.0,0.0,0.04,0.0,0.0,0.0,0.04
1614383760.2565475,339,1614383760,255713939,base_imu_link,0.04057677284041356,0.03008856388682731,-0.664696177631653,0.745404048332819,0.0025,0.0,0.0,0.0,0.0025,0.0,0.0,0.0,0.0025,0.05,0.16,-0.02,0.02,0.0,0.0,0.0,0.02,0.0,0.0,0.0,0.02,-3.552759765625,-0.5125167187499999,10.246503906249998,0.04,0.0,0.0,0.0,0.04,0.0,0.0,0.0,0.04
1614383760.2764678,340,1614383760,275584936,base_imu_link,0.04326499026886143,0.037966222671114845,-0.6642987768055258,0.7452475036441282,0.0025,0.0,0.0,0.0,0.0025,0.0,0.0,0.0,0.0025,-0.02,-0.3,-0.03,0.02,0.0,0.0,0.0,0.02,0.0,0.0,0.0,0.02,-1.5896445312499998,0.5554179687499999,9.111919062499998,0.04,0.0,0.0,0.0,0.04,0.0,0.0,0.0,0.04
1614383760.296054,341,1614383760,295241117,base_imu_link,0.046014063401492986,0.03959828071244356,-0.6643640765111378,0.7449396324370215,0.0025,0.0,0.0,0.0,0.0025,0.0,0.0,0.0,0.0025,-0.09,0.02,-0.11,0.02,0.0,0.0,0.0,0.02,0.0,0.0,0.0,0.02,-0.11989367187499998,0.22523156249999998,10.433047734375,0.04,0.0,0.0,0.0,0.04,0.0,0.0,0.0,0.04
1614383760.315777,342,1614383760,315088033,base_imu_link,0.042849578529197144,0.035650083649175136,-0.6645372497913774,0.7451732877629134,0.0025,0.0,0.0,0.0,0.0025,0.0,0.0,0.0,0.0025,0.01,-0.02,-0.06,0.02,0.0,0.0,0.0,0.02,0.0,0.0,0.0,0.02,-0.44050390624999997,0.162794921875,8.877111328124998,0.04,0.0,0.0,0.0,0.04,0.0,0.0,0.0,0.04
1614383760.336273,343,1614383760,335565090,base_imu_link,0.042549553057165804,0.034629343164716844,-0.6648414735318063,0.7449672202175558,0.0025,0.0,0.0,0.0,0.0025,0.0,0.0,0.0,0.0025,0.05,0.1,-0.07,0.02,0.0,0.0,0.0,0.02,0.0,0.0,0.0,0.02,-3.7971436718749993,-0.067033203125,9.892185546875,0.04,0.0,0.0,0.0,0.04,0.0,0.0,0.0,0.04
1614383760.3559313,344,1614383760,355329036,base_imu_link,0.04726741088429748,0.04221838521617483,-0.6639734317974426,0.7450655552937342,0.0025,0.0,0.0,0.0,0.0025,0.0,0.0,0.0,0.0025,-0.04,-0.33,-0.04,0.02,0.0,0.0,0.0,0.02,0.0,0.0,0.0,0.02,-1.881909296875,0.0,9.413376953124999,0.04,0.0,0.0,0.0,0.04,0.0,0.0,0.0,0.04
1614383760.3767402,345,1614383760,376138925,base_imu_link,0.049614593192401614,0.0466555266230598,-0.6639907198045626,0.7446327806316994,0.0025,0.0,0.0,0.0,0.0025,0.0,0.0,0.0,0.0025,-0.04,0.12,-0.09,0.02,0.0,0.0,0.0,0.02,0.0,0.0,0.0,0.02,1.388544921875,0.162794921875,9.389244999999999,0.04,0.0,0.0,0.0,0.04,0.0,0.0,0.0,0.04
1614383760.3962157,346,1614383760,395533084,base_imu_link,0.04158920043526343,0.035959286188328485,-0.6643202672356132,0.7454232694811618,0.0025,0.0,0.0,0.0,0.0025,0.0,0.0,0.0,0.0025,0.1,-0.07,-0.03,0.02,0.0,0.0,0.0,0.02,0.0,0.0,0.0,0.02,-3.5577393749999997,0.253960078125,9.413376953124999,0.04,0.0,0.0,0.0,0.04,0.0,0.0,0.0,0.04
1614383760.4168015,347,1614383760,415719032,base_imu_link,0.05015570580281896,0.045823021500957004,-0.6640456304482547,0.7445992590370498,0.0025,0.0,0.0,0.0,0.0025,0.0,0.0,0.0,0.0025,-0.06,0.04,-0.08,0.02,0.0,0.0,0.0,0.02,0.0,0.0,0.0,0.02,0.17696765625,0.124490234375,9.599920781249999,0.04,0.0,0.0,0.0,0.04,0.0,0.0,0.0,0.04
1614383760.436565,348,1614383760,435798883,base_imu_link,0.04405133854604995,0.03913496442607522,-0.6640505052708455,0.7453622344747591,0.0025,0.0,0.0,0.0,0.0025,0.0,0.0,0.0,0.0025,0.01,-0.21,-0.04,0.02,0.0,0.0,0.0,0.02,0.0,0.0,0.0,0.02,-3.6056202343749995,0.124490234375,9.523311406249999,0.04,0.0,0.0,0.0,0.04,0.0,0.0,0.0,0.04
1614383760.456965,349,1614383760,456283092,base_imu_link,0.052432844475773746,0.048465265482662716,-0.6633179584476513,0.7449236208247889,0.0025,0.0,0.0,0.0,0.0025,0.0,0.0,0.0,0.0025,0.01,0.04,-0.05,0.02,0.0,0.0,0.0,0.02,0.0,0.0,0.0,0.02,1.8194726562499999,0.10533789062499999,9.25517859375,0.04,0.0,0.0,0.0,0.04,0.0,0.0,0.0,0.04
1614383760.476819,350,1614383760,476007938,base_imu_link,0.044031891087209916,0.037877838634776,-0.6634651796087534,0.7459493396701727,0.0025,0.0,0.0,0.0,0.0025,0.0,0.0,0.0,0.0025,0.11,0.13,-0.05,0.02,0.0,0.0,0.0,0.02,0.0,0.0,0.0,0.02,-4.333409296875,0.19650304687499998,9.442105468749999,0.04,0.0,0.0,0.0,0.04,0.0,0.0,0.0,0.04
1614383760.4961734,351,1614383760,495515108,base_imu_link,0.052713235181900145,0.04729147232710754,-0.662811726411356,0.7454297061516866,0.0025,0.0,0.0,0.0,0.0025,0.0,0.0,0.0,0.0025,0.01,-0.23,-0.04,0.02,0.0,0.0,0.0,0.02,0.0,0.0,0.0,0.02,-1.39812109375,0.047880859374999994,9.523311406249999,0.04,0.0,0.0,0.0,0.04,0.0,0.0,0.0,0.04
1614383760.5162847,352,1614383760,515705108,base_imu_link,0.05239675534889049,0.04781448474262311,-0.6621289078303828,0.7460252438711779,0.0025,0.0,0.0,0.0,0.0025,0.0,0.0,0.0,0.0025,0.01,-0.03,-0.03,0.02,0.0,0.0,0.0,0.02,0.0,0.0,0.0,0.02,-0.028728515625,-0.3064375,9.068634765625,0.04,0.0,0.0,0.0,0.04,0.0,0.0,0.0,0.04
1614383760.5365639,353,1614383760,535923957,base_imu_link,0.04983492975993725,0.046593253401154576,-0.662442474508927,0.7459996759247336,0.0025,0.0,0.0,0.0,0.0025,0.0,0.0,0.0,0.0025,0.09,0.26,-0.04,0.02,0.0,0.0,0.0,0.02,0.0,0.0,0.0,0.02,-3.2942031249999997,-0.139046015625,10.102861328125,0.04,0.0,0.0,0.0,0.04,0.0,0.0,0.0,0.04
1614383760.5567143,354,1614383760,556015014,base_imu_link,0.05314162339789559,0.05203898532675097,-0.6620523395565087,0.7457577432092488,0.0025,0.0,0.0,0.0,0.0025,0.0,0.0,0.0,0.0025,0.01,-0.22,-0.03,0.02,0.0,0.0,0.0,0.02,0.0,0.0,0.0,0.02,-4.132309687499999,1.1253917187499998,9.260158203125,0.04,0.0,0.0,0.0,0.04,0.0,0.0,0.0,0.04
1614383760.5769646,355,1614383760,576169967,base_imu_link,0.06376182757550763,0.05681433407677394,-0.6610371520656712,0.7454773265341815,0.0025,0.0,0.0,0.0,0.0025,0.0,0.0,0.0,0.0025,-0.0,-0.27,-0.04,0.02,0.0,0.0,0.0,0.02,0.0,0.0,0.0,0.02,0.9913253124999999,0.17237109374999998,9.935469843749999,0.04,0.0,0.0,0.0,0.04,0.0,0.0,0.0,0.04
1614383760.5972006,356,1614383760,596366882,base_imu_link,0.05594326598662408,0.047816825920863185,-0.6617060280568573,0.7461427709110512,0.0025,0.0,0.0,0.0,0.0025,0.0,0.0,0.0,0.0025,0.04,0.11,-0.06,0.02,0.0,0.0,0.0,0.02,0.0,0.0,0.0,0.02,-0.42633117187499997,-0.6894843749999999,9.0782109375,0.04,0.0,0.0,0.0,0.04,0.0,0.0,0.0,0.04
1614383760.6169813,357,1614383760,616306066,base_imu_link,0.05257090075346039,0.04812374453056488,-0.6622404835157492,0.7458940592330477,0.0025,0.0,0.0,0.0,0.0025,0.0,0.0,0.0,0.0025,0.12,0.17,-0.05,0.02,0.0,0.0,0.0,0.02,0.0,0.0,0.0,0.02,-4.477051874999999,0.0,9.97377453125,0.04,0.0,0.0,0.0,0.04,0.0,0.0,0.0,0.04
1614383760.6368322,358,1614383760,636193037,base_imu_link,0.05737045707583723,0.05526768156287119,-0.6616689826370338,0.7455523264303098,0.0025,0.0,0.0,0.0,0.0025,0.0,0.0,0.0,0.0025,-0.04,-0.39,-0.03,0.02,0.0,0.0,0.0,0.02,0.0,0.0,0.0,0.02,-1.1587167968749998,-0.004979609375,8.82923046875,0.04,0.0,0.0,0.0,0.04,0.0,0.0,0.0,0.04
1614383760.6570995,359,1614383760,656433105,base_imu_link,0.05594020497251789,0.05572104287353055,-0.6618161955466977,0.7454966010390751,0.0025,0.0,0.0,0.0,0.0025,0.0,0.0,0.0,0.0025,-0.06,0.02,-0.1,0.02,0.0,0.0,0.0,0.02,0.0,0.0,0.0,0.02,-0.7611141406249999,-0.067033203125,10.361417968749999,0.04,0.0,0.0,0.0,0.04,0.0,0.0,0.0,0.04
1614383760.6770167,360,1614383760,676201105,base_imu_link,0.05340051724990075,0.05389692171480034,-0.66283010855089,0.7449159373953058,0.0025,0.0,0.0,0.0,0.0025,0.0,0.0,0.0,0.0025,0.02,0.07,-0.09,0.02,0.0,0.0,0.0,0.02,0.0,0.0,0.0,0.02,-1.7574190625,0.13406640625,9.992926874999998,0.04,0.0,0.0,0.0,0.04,0.0,0.0,0.0,0.04
1614383760.6973019,361,1614383760,696650981,base_imu_link,0.05417257760712739,0.05402047007855634,-0.6634095547375526,0.7443351955475529,0.0025,0.0,0.0,0.0,0.0025,0.0,0.0,0.0,0.0025,0.04,-0.08,-0.09,0.02,0.0,0.0,0.0,0.02,0.0,0.0,0.0,0.02,-4.515356562499999,1.173272578125,9.705641718749998,0.04,0.0,0.0,0.0,0.04,0.0,0.0,0.0,0.04
1614383760.7171059,362,1614383760,716355085,base_imu_link,0.06365516053830492,0.058267183877172474,-0.6631837512815842,0.7434650414484545,0.0025,0.0,0.0,0.0,0.0025,0.0,0.0,0.0,0.0025,-0.02,-0.33,-0.06,0.02,0.0,0.0,0.0,0.02,0.0,0.0,0.0,0.02,0.7182128906249999,0.14862218749999997,9.011177734375,0.04,0.0,0.0,0.0,0.04,0.0,0.0,0.0,0.04
