Time,header.seq,header.stamp.secs,header.stamp.nsecs,header.frame_id,orientation.x,orientation.y,orientation.z,orientation.w,orientation_covariance_0,orientation_covariance_1,orientation_covariance_2,orientation_covariance_3,orientation_covariance_4,orientation_covariance_5,orientation_covariance_6,orientation_covariance_7,orientation_covariance_8,angular_velocity.x,angular_velocity.y,angular_velocity.z,angular_velocity_covariance_0,angular_velocity_covariance_1,angular_velocity_covariance_2,angular_velocity_covariance_3,angular_velocity_covariance_4,angular_velocity_covariance_5,angular_velocity_covariance_6,angular_velocity_covariance_7,angular_velocity_covariance_8,linear_acceleration.x,linear_acceleration.y,linear_acceleration.z,linear_acceleration_covariance_0,linear_acceleration_covariance_1,linear_acceleration_covariance_2,linear_acceleration_covariance_3,linear_acceleration_covariance_4,linear_acceleration_covariance_5,linear_acceleration_covariance_6,linear_acceleration_covariance_7,linear_acceleration_covariance_8
1614558364.067839,1768,1614558364,72511911,base_imu_link,0.14938565020038963,0.1100406590380204,-0.9710299148871586,0.15058514291563665,0.0025,0.0,0.0,0.0,0.0025,0.0,0.0,0.0,0.0025,-0.0,-0.0,-0.0,0.02,0.0,0.0,0.0,0.02,0.0,0.0,0.0,0.02,0.048646953124999996,-0.050179140625,0.522858984375,0.04,0.0,0.0,0.0,0.04,0.0,0.0,0.0,0.04
1614558364.087018,1769,1614558364,92206954,base_imu_link,0.149489947701549,0.11002517565763972,-0.9710410090819964,0.15042132474723063,0.0025,0.0,0.0,0.0,0.0025,0.0,0.0,0.0,0.0025,-0.0,-0.0,-0.0,0.02,0.0,0.0,0.0,0.02,0.0,0.0,0.0,0.02,0.048646953124999996,-0.05477570312499999,0.522858984375,0.04,0.0,0.0,0.0,0.04,0.0,0.0,0.0,0.04
1614558364.1072624,1770,1614558364,112787961,base_imu_link,0.1495907371758421,0.1100813444092896,-0.971055574309656,0.15018582012419024,0.0025,0.0,0.0,0.0,0.0025,0.0,0.0,0.0,0.0025,-0.0,-0.0,-0.0,0.02,0.0,0.0,0.0,0.02,0.0,0.0,0.0,0.02,0.04405039062499999,-0.059372265625,0.505238828125,0.04,0.0,0.0,0.0,0.04,0.0,0.0,0.0,0.04
1614558364.1278582,1771,1614558364,132564067,base_imu_link,0.14968195115493246,0.11015052623014732,-0.9710569768198365,0.1500350720304873,0.0025,0.0,0.0,0.0,0.0025,0.0,0.0,0.0,0.0025,-0.0,-0.0,-0.0,0.02,0.0,0.0,0.0,0.02,0.0,0.0,0.0,0.02,0.048646953124999996,-0.059372265625,0.5404791406249999,0.04,0.0,0.0,0.0,0.04,0.0,0.0,0.0,0.04
1614558364.147327,1772,1614558364,152681112,base_imu_link,0.14980548976245942,0.11010878967423865,-0.9710940971252079,0.14970178423145544,0.0025,0.0,0.0,0.0,0.0025,0.0,0.0,0.0,0.0025,-0.0,-0.0,-0.0,0.02,0.0,0.0,0.0,0.02,0.0,0.0,0.0,0.02,0.053243515624999994,-0.07277890625,0.522858984375,0.04,0.0,0.0,0.0,0.04,0.0,0.0,0.0,0.04
1614558364.1686838,1773,1614558364,172996044,base_imu_link,0.1498679038618611,0.11021712890939415,-0.9710562143763963,0.1498052883178825,0.0025,0.0,0.0,0.0,0.0025,0.0,0.0,0.0,0.0025,-0.0,-0.0,-0.0,0.02,0.0,0.0,0.0,0.02,0.0,0.0,0.0,0.02,0.05784007812499999,-0.07277890625,0.5404791406249999,0.04,0.0,0.0,0.0,0.04,0.0,0.0,0.0,0.04
1614558364.1879423,1774,1614558364,192888975,base_imu_link,0.14995299810570759,0.11022765234238838,-0.9710410055183231,0.14981097630066742,0.0025,0.0,0.0,0.0,0.0025,0.0,0.0,0.0,0.0025,-0.0,-0.0,-0.0,0.02,0.0,0.0,0.0,0.02,0.0,0.0,0.0,0.02,0.06243664062499999,-0.06818234375,0.5580992968749999,0.04,0.0,0.0,0.0,0.04,0.0,0.0,0.0,0.04
1614558364.208431,1775,1614558364,212953090,base_imu_link,0.15003464358513213,0.11030981992924213,-0.9710292368878142,0.14974501814928567,0.0025,0.0,0.0,0.0,0.0025,0.0,0.0,0.0,0.0025,-0.0,-0.0,-0.0,0.02,0.0,0.0,0.0,0.02,0.0,0.0,0.0,0.02,0.06243664062499999,-0.06818234375,0.505238828125,0.04,0.0,0.0,0.0,0.04,0.0,0.0,0.0,0.04
1614558364.2272727,1776,1614558364,232971906,base_imu_link,0.15015823587990798,0.11026792453573678,-0.9710662265200207,0.149411755655915,0.0025,0.0,0.0,0.0,0.0025,0.0,0.0,0.0,0.0025,-0.0,-0.0,-0.0,0.02,0.0,0.0,0.0,0.02,0.0,0.0,0.0,0.02,0.05784007812499999,-0.06818234375,0.505238828125,0.04,0.0,0.0,0.0,0.04,0.0,0.0,0.0,0.04
1614558364.2484622,1777,1614558364,252899885,base_imu_link,0.15032501568022646,0.1103605091327973,-0.971039169032809,0.14935153125683417,0.0025,0.0,0.0,0.0,0.0025,0.0,0.0,0.0,0.0025,-0.0,-0.0,-0.0,0.02,0.0,0.0,0.0,0.02,0.0,0.0,0.0,0.02,0.05784007812499999,-0.059372265625,0.505238828125,0.04,0.0,0.0,0.0,0.04,0.0,0.0,0.0,0.04
1614558364.268144,1778,1614558364,273334026,base_imu_link,0.15044862628567227,0.11031847139798046,-0.9710760007022808,0.14901827598395764,0.0025,0.0,0.0,0.0,0.0025,0.0,0.0,0.0,0.0025,-0.0,-0.0,-0.0,0.02,0.0,0.0,0.0,0.02,0.0,0.0,0.0,0.02,0.048646953124999996,-0.050179140625,0.522858984375,0.04,0.0,0.0,0.0,0.04,0.0,0.0,0.0,0.04
1614558364.2877603,1779,1614558364,293246984,base_imu_link,0.15049180506548773,0.11045305593857435,-0.9710120678019483,0.14929133673775594,0.0025,0.0,0.0,0.0,0.0025,0.0,0.0,0.0,0.0025,-0.0,-0.0,-0.0,0.02,0.0,0.0,0.0,0.02,0.0,0.0,0.0,0.02,0.04405039062499999,-0.050179140625,0.522858984375,0.04,0.0,0.0,0.0,0.04,0.0,0.0,0.0,0.04
1614558364.3082669,1780,1614558364,313314914,base_imu_link,0.15061544608581126,0.11041094953992744,-0.9710488632587815,0.1489580974163277,0.0025,0.0,0.0,0.0,0.0025,0.0,0.0,0.0,0.0025,-0.0,-0.0,-0.0,0.02,0.0,0.0,0.0,0.02,0.0,0.0,0.0,0.02,0.04405039062499999,-0.050179140625,0.522858984375,0.04,0.0,0.0,0.0,0.04,0.0,0.0,0.0,0.04
1614558364.3266335,1781,1614558364,330933094,base_imu_link,0.15064895652768978,0.11055871196575978,-0.970971896263404,0.14931590595860883,0.0025,0.0,0.0,0.0,0.0025,0.0,0.0,0.0,0.0025,-0.0,-0.0,0.0,0.02,0.0,0.0,0.0,0.02,0.0,0.0,0.0,0.02,0.048646953124999996,-0.050179140625,0.522858984375,0.04,0.0,0.0,0.0,0.04,0.0,0.0,0.0,0.04
1614558364.3542545,1782,1614558364,353286981,base_imu_link,0.1507340448881625,0.11056917053265468,-0.9709566206749142,0.14932162270389734,0.0025,0.0,0.0,0.0,0.0025,0.0,0.0,0.0,0.0025,-0.0,-0.0,-0.0,0.02,0.0,0.0,0.0,0.02,0.0,0.0,0.0,0.02,0.048646953124999996,-0.059372265625,0.505238828125,0.04,0.0,0.0,0.0,0.04,0.0,0.0,0.0,0.04
1614558364.368303,1783,1614558364,373271942,base_imu_link,0.15084472021786033,0.11061171045166486,-0.9709837546168668,0.1490015710101236,0.0025,0.0,0.0,0.0,0.0025,0.0,0.0,0.0,0.0025,-0.0,-0.0,-0.0,0.02,0.0,0.0,0.0,0.02,0.0,0.0,0.0,0.02,0.048646953124999996,-0.05477570312499999,0.5404791406249999,0.04,0.0,0.0,0.0,0.04,0.0,0.0,0.0,0.04
1614558364.3925467,1784,1614558364,393776893,base_imu_link,0.15091049992362532,0.11064847683507083,-0.9709424438575497,0.14917676193968468,0.0025,0.0,0.0,0.0,0.0025,0.0,0.0,0.0,0.0025,-0.0,-0.0,-0.0,0.02,0.0,0.0,0.0,0.02,0.0,0.0,0.0,0.02,0.04405039062499999,-0.05477570312499999,0.5404791406249999,0.04,0.0,0.0,0.0,0.04,0.0,0.0,0.0,0.04
1614558364.4080486,1785,1614558364,413712978,base_imu_link,0.15105984381008683,0.11063821295118512,-0.9710214072695733,0.14851779707246449,0.0025,0.0,0.0,0.0,0.0025,0.0,0.0,0.0,0.0025,-0.0,-0.0,-0.0,0.02,0.0,0.0,0.0,0.02,0.0,0.0,0.0,0.02,0.053243515624999994,-0.06396882812499999,0.522858984375,0.04,0.0,0.0,0.0,0.04,0.0,0.0,0.0,0.04
1614558364.4485672,1786,1614558364,433792114,base_imu_link,0.15124933770079504,0.11063257235273244,-0.9710167043634281,0.14835980461996795,0.0025,0.0,0.0,0.0,0.0025,0.0,0.0,0.0,0.0025,-0.0,-0.0,-0.0,0.02,0.0,0.0,0.0,0.02,0.0,0.0,0.0,0.02,0.053243515624999994,-0.06396882812499999,0.487235625,0.04,0.0,0.0,0.0,0.04,0.0,0.0,0.0,0.04
1614558364.4512682,1787,1614558364,453692913,base_imu_link,0.15135046440120542,0.1106880498601801,-0.971030541665945,0.14812454116597581,0.0025,0.0,0.0,0.0,0.0025,0.0,0.0,0.0,0.0025,-0.0,-0.0,-0.0,0.02,0.0,0.0,0.0,0.02,0.0,0.0,0.0,0.02,0.05784007812499999,-0.05477570312499999,0.487235625,0.04,0.0,0.0,0.0,0.04,0.0,0.0,0.0,0.04
1614558364.4717546,1788,1614558364,474039077,base_imu_link,0.15146453239966676,0.11065873761211364,-0.9710539662424158,0.14787607602285333,0.0025,0.0,0.0,0.0,0.0025,0.0,0.0,0.0,0.0025,-0.0,-0.0,-0.0,0.02,0.0,0.0,0.0,0.02,0.0,0.0,0.0,0.02,0.053243515624999994,-0.06396882812499999,0.487235625,0.04,0.0,0.0,0.0,0.04,0.0,0.0,0.0,0.04
1614558364.492293,1789,1614558364,493930101,base_imu_link,0.15155604854165944,0.1107273406246108,-0.9710547741594963,0.1477255758854557,0.0025,0.0,0.0,0.0,0.0025,0.0,0.0,0.0,0.0025,-0.0,-0.0,-0.0,0.02,0.0,0.0,0.0,0.02,0.0,0.0,0.0,0.02,0.04405039062499999,-0.059372265625,0.5580992968749999,0.04,0.0,0.0,0.0,0.04,0.0,0.0,0.0,0.04
1614558364.5085704,1790,1614558364,514010906,base_imu_link,0.1515992316570428,0.11086206889265389,-0.970991058320728,0.14799878142413053,0.0025,0.0,0.0,0.0,0.0025,0.0,0.0,0.0,0.0025,-0.0,-0.0,-0.0,0.02,0.0,0.0,0.0,0.02,0.0,0.0,0.0,0.02,0.048646953124999996,-0.050179140625,0.5404791406249999,0.04,0.0,0.0,0.0,0.04,0.0,0.0,0.0,0.04
1614558364.5288997,1791,1614558364,534251928,base_imu_link,0.1517326841751742,0.11080619079238578,-0.9710401995067935,0.14758086453495534,0.0025,0.0,0.0,0.0,0.0025,0.0,0.0,0.0,0.0025,-0.0,-0.0,-0.0,0.02,0.0,0.0,0.0,0.02,0.0,0.0,0.0,0.02,0.053243515624999994,-0.059372265625,0.505238828125,0.04,0.0,0.0,0.0,0.04,0.0,0.0,0.0,0.04
1614558364.54874,1792,1614558364,554116010,base_imu_link,0.15184359990094998,0.11084821086348434,-0.9710666377423235,0.14726092618649306,0.0025,0.0,0.0,0.0,0.0025,0.0,0.0,0.0,0.0025,-0.0,-0.0,-0.0,0.02,0.0,0.0,0.0,0.02,0.0,0.0,0.0,0.02,0.05784007812499999,-0.06396882812499999,0.505238828125,0.04,0.0,0.0,0.0,0.04,0.0,0.0,0.0,0.04
1614558364.5690765,1793,1614558364,574608087,base_imu_link,0.15199638614324512,0.1107656295902436,-0.9711410599727984,0.14667349977340752,0.0025,0.0,0.0,0.0,0.0025,0.0,0.0,0.0,0.0025,-0.0,-0.0,-0.0,0.02,0.0,0.0,0.0,0.02,0.0,0.0,0.0,0.02,0.04405039062499999,-0.05477570312499999,0.5404791406249999,0.04,0.0,0.0,0.0,0.04,0.0,0.0,0.0,0.04
1614558364.5900047,1794,1614558364,594759941,base_imu_link,0.15206868548231126,0.11086057040900033,-0.9711160287002106,0.14669256158989258,0.0025,0.0,0.0,0.0,0.0025,0.0,0.0,0.0,0.0025,-0.0,-0.0,-0.0,0.02,0.0,0.0,0.0,0.02,0.0,0.0,0.0,0.02,0.048646953124999996,-0.050179140625,0.505238828125,0.04,0.0,0.0,0.0,0.04,0.0,0.0,0.0,0.04
1614558364.6093946,1795,1614558364,614392042,base_imu_link,0.15214410804091527,0.11088404026070063,-0.9710878543101518,0.14678310262153182,0.0025,0.0,0.0,0.0,0.0025,0.0,0.0,0.0,0.0025,-0.0,-0.0,-0.0,0.02,0.0,0.0,0.0,0.02,0.0,0.0,0.0,0.02,0.04405039062499999,-0.06396882812499999,0.522858984375,0.04,0.0,0.0,0.0,0.04,0.0,0.0,0.0,0.04
1614558364.6356194,1796,1614558364,634546995,base_imu_link,0.1522454431148142,0.11093912687001899,-0.9711011959608842,0.14654795250508357,0.0025,0.0,0.0,0.0,0.0025,0.0,0.0,0.0,0.0025,-0.0,-0.0,-0.0,0.02,0.0,0.0,0.0,0.02,0.0,0.0,0.0,0.02,0.039453828125,-0.05477570312499999,0.505238828125,0.04,0.0,0.0,0.0,0.04,0.0,0.0,0.0,0.04
1614558364.653987,1797,1614558364,654669046,base_imu_link,0.15231117387887083,0.11097588634285731,-0.9710602192020596,0.14672324166711173,0.0025,0.0,0.0,0.0,0.0025,0.0,0.0,0.0,0.0025,-0.0,-0.0,-0.0,0.02,0.0,0.0,0.0,0.02,0.0,0.0,0.0,0.02,0.04405039062499999,-0.05477570312499999,0.46961546874999993,0.04,0.0,0.0,0.0,0.04,0.0,0.0,0.0,0.04
1614558364.674746,1798,1614558364,674782991,base_imu_link,0.15236407539236943,0.11109740828200552,-0.9710095120623438,0.14691181670409892,0.0025,0.0,0.0,0.0,0.0025,0.0,0.0,0.0,0.0025,-0.0,-0.0,-0.0,0.02,0.0,0.0,0.0,0.02,0.0,0.0,0.0,0.02,0.039453828125,-0.059372265625,0.505238828125,0.04,0.0,0.0,0.0,0.04,0.0,0.0,0.0,0.04
1614558364.6894145,1799,1614558364,694574117,base_imu_link,0.15244916639940004,0.11110760941926129,-0.9709941108446263,0.14691762146971546,0.0025,0.0,0.0,0.0,0.0025,0.0,0.0,0.0,0.0025,-0.0,-0.0,-0.0,0.02,0.0,0.0,0.0,0.02,0.0,0.0,0.0,0.02,0.039453828125,-0.05477570312499999,0.522858984375,0.04,0.0,0.0,0.0,0.04,0.0,0.0,0.0,0.04
1614558364.7272058,1800,1614558364,714773893,base_imu_link,0.1525311378488928,0.11118923273433266,-0.9709818206289367,0.1468520020925419,0.0025,0.0,0.0,0.0,0.0025,0.0,0.0,0.0,0.0025,-0.0,-0.0,-0.0,0.02,0.0,0.0,0.0,0.02,0.0,0.0,0.0,0.02,0.053243515624999994,-0.050179140625,0.505238828125,0.04,0.0,0.0,0.0,0.04,0.0,0.0,0.0,0.04
1614558364.733321,1801,1614558364,732209920,base_imu_link,0.15263563255235124,0.1111727851584773,-0.970992020974278,0.14668834554843868,0.0025,0.0,0.0,0.0,0.0025,0.0,0.0,0.0,0.0025,-0.0,-0.0,0.0,0.02,0.0,0.0,0.0,0.02,0.0,0.0,0.0,0.02,0.048646953124999996,-0.050179140625,0.505238828125,0.04,0.0,0.0,0.0,0.04,0.0,0.0,0.0,0.04
1614558364.7496588,1802,1614558364,754853010,base_imu_link,0.1526690711181432,0.1113209917446906,-0.9709156222370523,0.14704640769818014,0.0025,0.0,0.0,0.0,0.0025,0.0,0.0,0.0,0.0025,-0.0,-0.0,-0.0,0.02,0.0,0.0,0.0,0.02,0.0,0.0,0.0,0.02,0.053243515624999994,-0.05477570312499999,0.487235625,0.04,0.0,0.0,0.0,0.04,0.0,0.0,0.0,0.04
1614558364.7700498,1803,1614558364,775010108,base_imu_link,0.152725003900809,0.11137118135736648,-0.9708616577015046,0.14730639752451033,0.0025,0.0,0.0,0.0,0.0025,0.0,0.0,0.0,0.0025,-0.0,-0.0,-0.0,0.02,0.0,0.0,0.0,0.02,0.0,0.0,0.0,0.02,0.048646953124999996,-0.05477570312499999,0.487235625,0.04,0.0,0.0,0.0,0.04,0.0,0.0,0.0,0.04
1614558364.7909472,1804,1614558364,795126914,base_imu_link,0.15283612823121642,0.11141278407433652,-0.9708878593137129,0.1469866459557896,0.0025,0.0,0.0,0.0,0.0025,0.0,0.0,0.0,0.0025,-0.0,-0.0,-0.0,0.02,0.0,0.0,0.0,0.02,0.0,0.0,0.0,0.02,0.048646953124999996,-0.050179140625,0.46961546874999993,0.04,0.0,0.0,0.0,0.04,0.0,0.0,0.0,0.04
1614558364.8289504,1805,1614558364,814995050,base_imu_link,0.15294065539061372,0.11139628460646733,-0.9708980512994657,0.14682301484258053,0.0025,0.0,0.0,0.0,0.0025,0.0,0.0,0.0,0.0025,-0.0,-0.0,-0.0,0.02,0.0,0.0,0.0,0.02,0.0,0.0,0.0,0.02,0.04405039062499999,-0.045965624999999996,0.522858984375,0.04,0.0,0.0,0.0,0.04,0.0,0.0,0.0,0.04
1614558364.8309023,1806,1614558364,835088014,base_imu_link,0.15299346348501913,0.11151789008417817,-0.9708472273410227,0.1470116372478033,0.0025,0.0,0.0,0.0,0.0025,0.0,0.0,0.0,0.0025,-0.0,-0.0,-0.0,0.02,0.0,0.0,0.0,0.02,0.0,0.0,0.0,0.02,0.039453828125,-0.045965624999999996,0.505238828125,0.04,0.0,0.0,0.0,0.04,0.0,0.0,0.0,0.04
1614558364.851512,1807,1614558364,855113983,base_imu_link,0.15309800614812857,0.11150136010843142,-0.9708574080137743,0.14684801841432324,0.0025,0.0,0.0,0.0,0.0025,0.0,0.0,0.0,0.0025,-0.0,-0.0,-0.0,0.02,0.0,0.0,0.0,0.02,0.0,0.0,0.0,0.02,0.039453828125,-0.045965624999999996,0.505238828125,0.04,0.0,0.0,0.0,0.04,0.0,0.0,0.0,0.04
1614558364.870321,1808,1614558364,875344991,base_imu_link,0.15326508795630112,0.11159305148873959,-0.9708295376038552,0.1467883257928349,0.0025,0.0,0.0,0.0,0.0025,0.0,0.0,0.0,0.0025,-0.0,-0.0,-0.0,0.02,0.0,0.0,0.0,0.02,0.0,0.0,0.0,0.02,0.04405039062499999,-0.050179140625,0.522858984375,0.04,0.0,0.0,0.0,0.04,0.0,0.0,0.0,0.04
1614558364.887351,1809,1614558364,892651081,base_imu_link,0.15335990491885237,0.11158983153316238,-0.9708268586442106,0.14670943935785086,0.0025,0.0,0.0,0.0,0.0025,0.0,0.0,0.0,0.0025,-0.0,-0.0,0.0,0.02,0.0,0.0,0.0,0.02,0.0,0.0,0.0,0.02,0.053243515624999994,-0.059372265625,0.522858984375,0.04,0.0,0.0,0.0,0.04,0.0,0.0,0.0,0.04
1614558364.908395,1810,1614558364,912982940,base_imu_link,0.15345166938032917,0.11165792423553246,-0.9708272178539687,0.1465592241850545,0.0025,0.0,0.0,0.0,0.0025,0.0,0.0,0.0,0.0025,-0.0,-0.0,0.0,0.02,0.0,0.0,0.0,0.02,0.0,0.0,0.0,0.02,0.048646953124999996,-0.05477570312499999,0.522858984375,0.04,0.0,0.0,0.0,0.04,0.0,0.0,0.0,0.04
1614558364.934497,1811,1614558364,932957887,base_imu_link,0.15350750762898818,0.11170825370504467,-0.9707733143265598,0.14681921995138073,0.0025,0.0,0.0,0.0,0.0025,0.0,0.0,0.0,0.0025,-0.0,-0.0,0.0,0.02,0.0,0.0,0.0,0.02,0.0,0.0,0.0,0.02,0.048646953124999996,-0.06396882812499999,0.505238828125,0.04,0.0,0.0,0.0,0.04,0.0,0.0,0.0,0.04
1614558364.950329,1812,1614558364,955507040,base_imu_link,0.15356025278916036,0.11182992979516256,-0.9707224098924448,0.1470078858359063,0.0025,0.0,0.0,0.0,0.0025,0.0,0.0,0.0,0.0025,-0.0,-0.0,-0.0,0.02,0.0,0.0,0.0,0.02,0.0,0.0,0.0,0.02,0.048646953124999996,-0.06818234375,0.522858984375,0.04,0.0,0.0,0.0,0.04,0.0,0.0,0.0,0.04
1614558364.9708085,1813,1614558364,976054906,base_imu_link,0.15363249369712145,0.11192481106148866,-0.9706971284715663,0.1470271346599315,0.0025,0.0,0.0,0.0,0.0025,0.0,0.0,0.0,0.0025,-0.0,-0.0,-0.0,0.02,0.0,0.0,0.0,0.02,0.0,0.0,0.0,0.02,0.048646953124999996,-0.059372265625,0.522858984375,0.04,0.0,0.0,0.0,0.04,0.0,0.0,0.0,0.04
1614558364.9906294,1814,1614558364,995975017,base_imu_link,0.15376638909249557,0.11186789779745439,-0.970745665194182,0.14660942853220116,0.0025,0.0,0.0,0.0,0.0025,0.0,0.0,0.0,0.0025,-0.0,-0.0,-0.0,0.02,0.0,0.0,0.0,0.02,0.0,0.0,0.0,0.02,0.048646953124999996,-0.045965624999999996,0.5404791406249999,0.04,0.0,0.0,0.0,0.04,0.0,0.0,0.0,0.04
1614558365.010554,1815,1614558365,15912055,base_imu_link,0.1539335079951097,0.11195943725728386,-0.9707176206968667,0.14654985634235848,0.0025,0.0,0.0,0.0,0.0025,0.0,0.0,0.0,0.0025,-0.0,-0.0,-0.0,0.02,0.0,0.0,0.0,0.02,0.0,0.0,0.0,0.02,0.04405039062499999,-0.05477570312499999,0.5761025,0.04,0.0,0.0,0.0,0.04,0.0,0.0,0.0,0.04
1614558365.032039,1816,1614558365,36149024,base_imu_link,0.15399903374249513,0.11199643773798476,-0.9706764810027289,0.14672513339076712,0.0025,0.0,0.0,0.0,0.0025,0.0,0.0,0.0,0.0025,-0.0,-0.0,-0.0,0.02,0.0,0.0,0.0,0.02,0.0,0.0,0.0,0.02,0.04405039062499999,-0.05477570312499999,0.5580992968749999,0.04,0.0,0.0,0.0,0.04,0.0,0.0,0.0,0.04
1614558365.0510156,1817,1614558365,55902957,base_imu_link,0.15408107721122788,0.11207783264078007,-0.9706639505347402,0.146659729333803,0.0025,0.0,0.0,0.0,0.0025,0.0,0.0,0.0,0.0025,-0.0,-0.0,-0.0,0.02,0.0,0.0,0.0,0.02,0.0,0.0,0.0,0.02,0.048646953124999996,-0.045965624999999996,0.59372265625,0.04,0.0,0.0,0.0,0.04,0.0,0.0,0.0,0.04
1614558365.0780282,1818,1614558365,76100111,base_imu_link,0.15421503685845442,0.11202067953601585,-0.9707122907801862,0.14624205377153993,0.0025,0.0,0.0,0.0,0.0025,0.0,0.0,0.0,0.0025,-0.0,-0.0,-0.0,0.02,0.0,0.0,0.0,0.02,0.0,0.0,0.0,0.02,0.05784007812499999,-0.05477570312499999,0.5761025,0.04,0.0,0.0,0.0,0.04,0.0,0.0,0.0,0.04
1614558365.0915048,1819,1614558365,95988988,base_imu_link,0.15434602606758502,0.11203467561139724,-0.9707633926522342,0.1457531172363646,0.0025,0.0,0.0,0.0,0.0025,0.0,0.0,0.0,0.0025,-0.0,-0.0,-0.0,0.02,0.0,0.0,0.0,0.02,0.0,0.0,0.0,0.02,0.05784007812499999,-0.050179140625,0.5404791406249999,0.04,0.0,0.0,0.0,0.04,0.0,0.0,0.0,0.04
1614558365.10904,1820,1614558365,113629102,base_imu_link,0.15446042755628264,0.11200428231129658,-0.9707859466847237,0.14550485484170783,0.0025,0.0,0.0,0.0,0.0025,0.0,0.0,0.0,0.0025,-0.0,-0.0,0.0,0.02,0.0,0.0,0.0,0.02,0.0,0.0,0.0,0.02,0.053243515624999994,-0.050179140625,0.5404791406249999,0.04,0.0,0.0,0.0,0.04,0.0,0.0,0.0,0.04
1614558365.1300435,1821,1614558365,133650064,base_imu_link,0.1544838766213975,0.11216643194422604,-0.970697000396862,0.1459477880252409,0.0025,0.0,0.0,0.0,0.0025,0.0,0.0,0.0,0.0025,-0.0,-0.0,0.0,0.02,0.0,0.0,0.0,0.02,0.0,0.0,0.0,0.02,0.053243515624999994,-0.045965624999999996,0.5404791406249999,0.04,0.0,0.0,0.0,0.04,0.0,0.0,0.0,0.04
1614558365.1481998,1822,1614558365,153676986,base_imu_link,0.1545689455451002,0.11217648423130722,-0.9706814113907657,0.14595367429088732,0.0025,0.0,0.0,0.0,0.0025,0.0,0.0,0.0,0.0025,-0.0,-0.0,0.0,0.02,0.0,0.0,0.0,0.02,0.0,0.0,0.0,0.02,0.053243515624999994,-0.05477570312499999,0.505238828125,0.04,0.0,0.0,0.0,0.04,0.0,0.0,0.0,0.04
1614558365.1712084,1823,1614558365,173834085,base_imu_link,0.1547488702705103,0.11218308228325352,-0.9706629453941433,0.14588073772159213,0.0025,0.0,0.0,0.0,0.0025,0.0,0.0,0.0,0.0025,-0.0,-0.0,0.0,0.02,0.0,0.0,0.0,0.02,0.0,0.0,0.0,0.02,0.053243515624999994,-0.05477570312499999,0.487235625,0.04,0.0,0.0,0.0,0.04,0.0,0.0,0.0,0.04
1614558365.1935446,1824,1614558365,196830034,base_imu_link,0.1548407987584177,0.11225080600818602,-0.9706629899255733,0.14573072283878327,0.0025,0.0,0.0,0.0,0.0025,0.0,0.0,0.0,0.0025,-0.0,-0.0,-0.0,0.02,0.0,0.0,0.0,0.02,0.0,0.0,0.0,0.02,0.048646953124999996,-0.059372265625,0.505238828125,0.04,0.0,0.0,0.0,0.04,0.0,0.0,0.0,0.04
1614558365.2118213,1825,1614558365,216577053,base_imu_link,0.15490334198748884,0.11235905407426992,-0.9706248489207968,0.14583483899988625,0.0025,0.0,0.0,0.0,0.0025,0.0,0.0,0.0,0.0025,-0.0,-0.0,-0.0,0.02,0.0,0.0,0.0,0.02,0.0,0.0,0.0,0.02,0.039453828125,-0.06396882812499999,0.522858984375,0.04,0.0,0.0,0.0,0.04,0.0,0.0,0.0,0.04
1614558365.2356763,1826,1614558365,236618041,base_imu_link,0.15502762051024424,0.11231497651107976,-0.9706600711178683,0.145501921869444,0.0025,0.0,0.0,0.0,0.0025,0.0,0.0,0.0,0.0025,-0.0,-0.0,-0.0,0.02,0.0,0.0,0.0,0.02,0.0,0.0,0.0,0.02,0.048646953124999996,-0.06396882812499999,0.5404791406249999,0.04,0.0,0.0,0.0,0.04,0.0,0.0,0.0,0.04
1614558365.2521238,1827,1614558365,256851911,base_imu_link,0.15505092529910683,0.11247734511617322,-0.970571045129263,0.14594486546706056,0.0025,0.0,0.0,0.0,0.0025,0.0,0.0,0.0,0.0025,-0.0,-0.0,-0.0,0.02,0.0,0.0,0.0,0.02,0.0,0.0,0.0,0.02,0.05784007812499999,-0.05477570312499999,0.522858984375,0.04,0.0,0.0,0.0,0.04,0.0,0.0,0.0,0.04
1614558365.2729716,1828,1614558365,276741027,base_imu_link,0.15512616833712958,0.11250091764412952,-0.970542661963162,0.14603546396587613,0.0025,0.0,0.0,0.0,0.0025,0.0,0.0,0.0,0.0025,-0.0,-0.0,-0.0,0.02,0.0,0.0,0.0,0.02,0.0,0.0,0.0,0.02,0.048646953124999996,-0.05477570312499999,0.522858984375,0.04,0.0,0.0,0.0,0.04,0.0,0.0,0.0,0.04
1614558365.2921996,1829,1614558365,297204017,base_imu_link,0.15524759552638848,0.11252792420004484,-0.9705808251521985,0.1456314258852855,0.0025,0.0,0.0,0.0,0.0025,0.0,0.0,0.0,0.0025,-0.0,-0.0,-0.0,0.02,0.0,0.0,0.0,0.02,0.0,0.0,0.0,0.02,0.039453828125,-0.05477570312499999,0.522858984375,0.04,0.0,0.0,0.0,0.04,0.0,0.0,0.0,0.04
1614558365.3123877,1830,1614558365,317255973,base_imu_link,0.1553031884656805,0.11257858835395444,-0.9705270076676915,0.1458914270415528,0.0025,0.0,0.0,0.0,0.0025,0.0,0.0,0.0,0.0025,-0.0,-0.0,-0.0,0.02,0.0,0.0,0.0,0.02,0.0,0.0,0.0,0.02,0.039453828125,-0.05477570312499999,0.522858984375,0.04,0.0,0.0,0.0,0.04,0.0,0.0,0.0,0.04
1614558365.3316245,1831,1614558365,336894035,base_imu_link,0.15539517558271113,0.112646184586019,-0.9705269648393626,0.1457415075519856,0.0025,0.0,0.0,0.0,0.0025,0.0,0.0,0.0,0.0025,-0.0,-0.0,-0.0,0.02,0.0,0.0,0.0,0.02,0.0,0.0,0.0,0.02,0.053243515624999994,-0.05477570312499999,0.5404791406249999,0.04,0.0,0.0,0.0,0.04,0.0,0.0,0.0,0.04
1614558365.3511434,1832,1614558365,356848001,base_imu_link,0.15546056786696083,0.11268332564742391,-0.9704858397039368,0.145916808125943,0.0025,0.0,0.0,0.0,0.0025,0.0,0.0,0.0,0.0025,-0.0,-0.0,-0.0,0.02,0.0,0.0,0.0,0.02,0.0,0.0,0.0,0.02,0.04405039062499999,-0.059372265625,0.5580992968749999,0.04,0.0,0.0,0.0,0.04,0.0,0.0,0.0,0.04
1614558365.3719983,1833,1614558365,377085924,base_imu_link,0.15555256816155566,0.11275088773325773,-0.9704857765136342,0.14576691475926712,0.0025,0.0,0.0,0.0,0.0025,0.0,0.0,0.0,0.0025,-0.0,-0.0,-0.0,0.02,0.0,0.0,0.0,0.02,0.0,0.0,0.0,0.02,0.04405039062499999,-0.050179140625,0.505238828125,0.04,0.0,0.0,0.0,0.04,0.0,0.0,0.0,0.04
1614558365.3917177,1834,1614558365,397173881,base_imu_link,0.15568680854637643,0.11269297055037565,-0.9705336012445064,0.14534937526025155,0.0025,0.0,0.0,0.0,0.0025,0.0,0.0,0.0,0.0025,-0.0,-0.0,-0.0,0.02,0.0,0.0,0.0,0.02,0.0,0.0,0.0,0.02,0.05784007812499999,-0.045965624999999996,0.505238828125,0.04,0.0,0.0,0.0,0.04,0.0,0.0,0.0,0.04
1614558365.4119818,1835,1614558365,417206048,base_imu_link,0.15576902244710422,0.11277403610542464,-0.9705207514065821,0.1452842025671372,0.0025,0.0,0.0,0.0,0.0025,0.0,0.0,0.0,0.0025,-0.0,-0.0,-0.0,0.02,0.0,0.0,0.0,0.02,0.0,0.0,0.0,0.02,0.048646953124999996,-0.05477570312499999,0.522858984375,0.04,0.0,0.0,0.0,0.04,0.0,0.0,0.0,0.04
1614558365.4326987,1836,1614558365,437665939,base_imu_link,0.1558639204316134,0.11277039049259113,-0.9705177258351793,0.14520544471729646,0.0025,0.0,0.0,0.0,0.0025,0.0,0.0,0.0,0.0025,-0.0,-0.0,-0.0,0.02,0.0,0.0,0.0,0.02,0.0,0.0,0.0,0.02,0.053243515624999994,-0.059372265625,0.5404791406249999,0.04,0.0,0.0,0.0,0.04,0.0,0.0,0.0,0.04
1614558365.4530573,1837,1614558365,457331895,base_imu_link,0.1559658464053003,0.11282420181423726,-0.9705301590478775,0.14497090955967745,0.0025,0.0,0.0,0.0,0.0025,0.0,0.0,0.0,0.0025,-0.0,-0.0,-0.0,0.02,0.0,0.0,0.0,0.02,0.0,0.0,0.0,0.02,0.05784007812499999,-0.05477570312499999,0.522858984375,0.04,0.0,0.0,0.0,0.04,0.0,0.0,0.0,0.04
1614558365.4724305,1838,1614558365,477430105,base_imu_link,0.1560902803313925,0.11277964577135395,-0.9705649919811931,0.1446380732252129,0.0025,0.0,0.0,0.0,0.0025,0.0,0.0,0.0,0.0025,-0.0,-0.0,-0.0,0.02,0.0,0.0,0.0,0.02,0.0,0.0,0.0,0.02,0.053243515624999994,-0.06396882812499999,0.5404791406249999,0.04,0.0,0.0,0.0,0.04,0.0,0.0,0.0,0.04
1614558365.4928687,1839,1614558365,497682094,base_imu_link,0.1561824142203497,0.112846976810419,-0.9705646585597819,0.1444882585810557,0.0025,0.0,0.0,0.0,0.0025,0.0,0.0,0.0,0.0025,-0.0,-0.0,-0.0,0.02,0.0,0.0,0.0,0.02,0.0,0.0,0.0,0.02,0.053243515624999994,-0.05477570312499999,0.522858984375,0.04,0.0,0.0,0.0,0.04,0.0,0.0,0.0,0.04
1614558365.5123727,1840,1614558365,517751932,base_imu_link,0.15631670161476502,0.11278865676598261,-0.9706118867276149,0.14407072237018,0.0025,0.0,0.0,0.0,0.0025,0.0,0.0,0.0,0.0025,-0.0,-0.0,-0.0,0.02,0.0,0.0,0.0,0.02,0.0,0.0,0.0,0.02,0.053243515624999994,-0.045965624999999996,0.5404791406249999,0.04,0.0,0.0,0.0,0.04,0.0,0.0,0.0,0.04
1614558365.5340033,1841,1614558365,537795066,base_imu_link,0.15646439845465743,0.11290668366285868,-0.9705579893319107,0.1441810047977058,0.0025,0.0,0.0,0.0,0.0025,0.0,0.0,0.0,0.0025,-0.0,-0.0,-0.0,0.02,0.0,0.0,0.0,0.02,0.0,0.0,0.0,0.02,0.048646953124999996,-0.045965624999999996,0.522858984375,0.04,0.0,0.0,0.0,0.04,0.0,0.0,0.0,0.04
1614558365.5541468,1842,1614558365,557990074,base_imu_link,0.15657901309526484,0.11287553684300929,-0.9705799562439185,0.14393288150408354,0.0025,0.0,0.0,0.0,0.0025,0.0,0.0,0.0,0.0025,-0.0,-0.0,-0.0,0.02,0.0,0.0,0.0,0.02,0.0,0.0,0.0,0.02,0.039453828125,-0.059372265625,0.5580992968749999,0.04,0.0,0.0,0.0,0.04,0.0,0.0,0.0,0.04
1614558365.5732374,1843,1614558365,578207015,base_imu_link,0.1565467343207764,0.11298755977278681,-0.9705449641053414,0.14411593929837452,0.0025,0.0,0.0,0.0,0.0025,0.0,0.0,0.0,0.0025,-0.0,-0.0,-0.0,0.02,0.0,0.0,0.0,0.02,0.0,0.0,0.0,0.02,0.039453828125,-0.05477570312499999,0.5404791406249999,0.04,0.0,0.0,0.0,0.04,0.0,0.0,0.0,0.04
1614558365.5935915,1844,1614558365,598643064,base_imu_link,0.15664165228064422,0.11298372258389484,-0.9705417818022406,0.1440372208077034,0.0025,0.0,0.0,0.0,0.0025,0.0,0.0,0.0,0.0025,-0.0,-0.0,-0.0,0.02,0.0,0.0,0.0,0.02,0.0,0.0,0.0,0.02,0.04405039062499999,-0.045965624999999996,0.522858984375,0.04,0.0,0.0,0.0,0.04,0.0,0.0,0.0,0.04
1614558365.6126816,1845,1614558365,617969036,base_imu_link,0.15673387237101183,0.11305088668751687,-0.9705412829585589,0.14388748501488272,0.0025,0.0,0.0,0.0,0.0025,0.0,0.0,0.0,0.0025,-0.0,-0.0,-0.0,0.02,0.0,0.0,0.0,0.02,0.0,0.0,0.0,0.02,0.04405039062499999,-0.059372265625,0.522858984375,0.04,0.0,0.0,0.0,0.04,0.0,0.0,0.0,0.04
1614558365.6331725,1846,1614558365,638514995,base_imu_link,0.1568287955165557,0.1130470078025276,-0.9705380666468254,0.14380877620355406,0.0025,0.0,0.0,0.0,0.0025,0.0,0.0,0.0,0.0025,-0.0,-0.0,-0.0,0.02,0.0,0.0,0.0,0.02,0.0,0.0,0.0,0.02,0.04405039062499999,-0.050179140625,0.522858984375,0.04,0.0,0.0,0.0,0.04,0.0,0.0,0.0,0.04
1614558365.6527324,1847,1614558365,658201932,base_imu_link,0.15694078598458808,0.1130867239360579,-0.9705625667988026,0.14348967381964925,0.0025,0.0,0.0,0.0,0.0025,0.0,0.0,0.0,0.0025,-0.0,-0.0,-0.0,0.02,0.0,0.0,0.0,0.02,0.0,0.0,0.0,0.02,0.053243515624999994,-0.050179140625,0.487235625,0.04,0.0,0.0,0.0,0.04,0.0,0.0,0.0,0.04
1614558365.6733382,1848,1614558365,678394079,base_imu_link,0.15701597454979374,0.11311019296165789,-0.9705342580314082,0.14358036764049145,0.0025,0.0,0.0,0.0,0.0025,0.0,0.0,0.0,0.0025,-0.0,-0.0,-0.0,0.02,0.0,0.0,0.0,0.02,0.0,0.0,0.0,0.02,0.048646953124999996,-0.059372265625,0.522858984375,0.04,0.0,0.0,0.0,0.04,0.0,0.0,0.0,0.04
1614558365.6929123,1849,1614558365,698354005,base_imu_link,0.15711813184979573,0.11316352961975795,-0.9705461532819416,0.14334598898348777,0.0025,0.0,0.0,0.0,0.0025,0.0,0.0,0.0,0.0025,-0.0,-0.0,-0.0,0.02,0.0,0.0,0.0,0.02,0.0,0.0,0.0,0.02,0.053243515624999994,-0.05477570312499999,0.487235625,0.04,0.0,0.0,0.0,0.04,0.0,0.0,0.0,0.04
1614558365.7127404,1850,1614558365,718353986,base_imu_link,0.15722032439094927,0.11321681605521673,-0.970557975852783,0.14311162660410376,0.0025,0.0,0.0,0.0,0.0025,0.0,0.0,0.0,0.0025,-0.0,-0.0,-0.0,0.02,0.0,0.0,0.0,0.02,0.0,0.0,0.0,0.02,0.06243664062499999,-0.050179140625,0.5404791406249999,0.04,0.0,0.0,0.0,0.04,0.0,0.0,0.0,0.04
1614558365.7338505,1851,1614558365,738847970,base_imu_link,0.15729550122006228,0.11324026701917271,-0.9705296788214814,0.14320233848659022,0.0025,0.0,0.0,0.0,0.0025,0.0,0.0,0.0,0.0025,-0.0,-0.0,-0.0,0.02,0.0,0.0,0.0,0.02,0.0,0.0,0.0,0.02,0.067033203125,-0.050179140625,0.522858984375,0.04,0.0,0.0,0.0,0.04,0.0,0.0,0.0,0.04
1614558365.7541177,1852,1614558365,758418083,base_imu_link,0.1573383832502521,0.11337588534832381,-0.9704664516053836,0.1434761585983411,0.0025,0.0,0.0,0.0,0.0025,0.0,0.0,0.0,0.0025,-0.0,-0.0,-0.0,0.02,0.0,0.0,0.0,0.02,0.0,0.0,0.0,0.02,0.053243515624999994,-0.059372265625,0.522858984375,0.04,0.0,0.0,0.0,0.04,0.0,0.0,0.0,0.04
1614558365.7734563,1853,1614558365,778738021,base_imu_link,0.15741353987506723,0.11339937319794328,-0.9704381050315227,0.1435668622111011,0.0025,0.0,0.0,0.0,0.0025,0.0,0.0,0.0,0.0025,-0.0,-0.0,-0.0,0.02,0.0,0.0,0.0,0.02,0.0,0.0,0.0,0.02,0.05784007812499999,-0.05477570312499999,0.5404791406249999,0.04,0.0,0.0,0.0,0.04,0.0,0.0,0.0,0.04
1614558365.7936623,1854,1614558365,799184083,base_imu_link,0.15747615531251483,0.11350755795803207,-0.970399840919287,0.14367130380912901,0.0025,0.0,0.0,0.0,0.0025,0.0,0.0,0.0,0.0025,-0.0,-0.0,-0.0,0.02,0.0,0.0,0.0,0.02,0.0,0.0,0.0,0.02,0.053243515624999994,-0.05477570312499999,0.505238828125,0.04,0.0,0.0,0.0,0.04,0.0,0.0,0.0,0.04
1614558365.813881,1855,1614558365,819184064,base_imu_link,0.1575909160391052,0.11347606687162565,-0.9704215839205177,0.14342327178842143,0.0025,0.0,0.0,0.0,0.0025,0.0,0.0,0.0,0.0025,-0.0,-0.0,-0.0,0.02,0.0,0.0,0.0,0.02,0.0,0.0,0.0,0.02,0.05784007812499999,-0.059372265625,0.522858984375,0.04,0.0,0.0,0.0,0.04,0.0,0.0,0.0,0.04
1614558365.8336568,1856,1614558365,838895082,base_imu_link,0.1576733578804044,0.11355673025165919,-0.9704083466006376,0.14335836940020824,0.0025,0.0,0.0,0.0,0.0025,0.0,0.0,0.0,0.0025,-0.0,-0.0,-0.0,0.02,0.0,0.0,0.0,0.02,0.0,0.0,0.0,0.02,0.04405039062499999,-0.059372265625,0.522858984375,0.04,0.0,0.0,0.0,0.04,0.0,0.0,0.0,0.04
1614558365.8543112,1857,1614558365,858907938,base_imu_link,0.15775840571751745,0.11356645968212928,-0.9703924946941102,0.1433643990050379,0.0025,0.0,0.0,0.0,0.0025,0.0,0.0,0.0,0.0025,-0.0,-0.0,-0.0,0.02,0.0,0.0,0.0,0.02,0.0,0.0,0.0,0.02,0.048646953124999996,-0.050179140625,0.505238828125,0.04,0.0,0.0,0.0,0.04,0.0,0.0,0.0,0.04
1614558365.8737903,1858,1614558365,878946065,base_imu_link,0.1578011785677715,0.1137021852995119,-0.9703291491608658,0.14363823790860192,0.0025,0.0,0.0,0.0,0.0025,0.0,0.0,0.0,0.0025,-0.0,-0.0,-0.0,0.02,0.0,0.0,0.0,0.02,0.0,0.0,0.0,0.02,0.05784007812499999,-0.059372265625,0.522858984375,0.04,0.0,0.0,0.0,0.04,0.0,0.0,0.0,0.04
1614558365.8944187,1859,1614558365,899100065,base_imu_link,0.1578762970864668,0.11372571161888927,-0.970300741024464,0.1437289438575931,0.0025,0.0,0.0,0.0,0.0025,0.0,0.0,0.0,0.0025,-0.0,-0.0,-0.0,0.02,0.0,0.0,0.0,0.02,0.0,0.0,0.0,0.02,0.048646953124999996,-0.059372265625,0.522858984375,0.04,0.0,0.0,0.0,0.04,0.0,0.0,0.0,0.04
1614558365.9182143,1860,1614558365,916466951,base_imu_link,0.15796865650331662,0.11379257065071686,-0.9703000091206869,0.14357940913527098,0.0025,0.0,0.0,0.0,0.0025,0.0,0.0,0.0,0.0025,-0.0,-0.0,0.0,0.02,0.0,0.0,0.0,0.02,0.0,0.0,0.0,0.02,0.039453828125,-0.05477570312499999,0.522858984375,0.04,0.0,0.0,0.0,0.04,0.0,0.0,0.0,0.04
1614558365.9348805,1861,1614558365,939301013,base_imu_link,0.1580437650530102,0.1138161010454742,-0.9702715910152834,0.14367011915964245,0.0025,0.0,0.0,0.0,0.0025,0.0,0.0,0.0,0.0025,-0.0,-0.0,-0.0,0.02,0.0,0.0,0.0,0.02,0.0,0.0,0.0,0.02,0.04405039062499999,-0.059372265625,0.505238828125,0.04,0.0,0.0,0.0,0.04,0.0,0.0,0.0,0.04
1614558365.9540539,1862,1614558365,959579944,base_imu_link,0.15817588629365725,0.11382771089670767,-0.9703208648899557,0.14318191361495286,0.0025,0.0,0.0,0.0,0.0025,0.0,0.0,0.0,0.0025,-0.0,-0.0,-0.0,0.02,0.0,0.0,0.0,0.02,0.0,0.0,0.0,0.02,0.04405039062499999,-0.06396882812499999,0.46961546874999993,0.04,0.0,0.0,0.0,0.04,0.0,0.0,0.0,0.04
1614558365.974566,1863,1614558365,979350090,base_imu_link,0.1582683125091801,0.11389446206336469,-0.9703200084466611,0.14303242280988232,0.0025,0.0,0.0,0.0,0.0025,0.0,0.0,0.0,0.0025,-0.0,-0.0,-0.0,0.02,0.0,0.0,0.0,0.02,0.0,0.0,0.0,0.02,0.053243515624999994,-0.05477570312499999,0.505238828125,0.04,0.0,0.0,0.0,0.04,0.0,0.0,0.0,0.04
1614558365.9975684,1864,1614558365,999723911,base_imu_link,0.15836329345640132,0.1138903234100708,-0.9703165828294822,0.142953805844083,0.0025,0.0,0.0,0.0,0.0025,0.0,0.0,0.0,0.0025,-0.0,-0.0,-0.0,0.02,0.0,0.0,0.0,0.02,0.0,0.0,0.0,0.02,0.05784007812499999,-0.06396882812499999,0.505238828125,0.04,0.0,0.0,0.0,0.04,0.0,0.0,0.0,0.04
1614558366.0144382,1865,1614558366,19695997,base_imu_link,0.15836619959945725,0.11408143179767635,-0.9702032095520294,0.14356638157437054,0.0025,0.0,0.0,0.0,0.0025,0.0,0.0,0.0,0.0025,-0.0,-0.0,-0.0,0.02,0.0,0.0,0.0,0.02,0.0,0.0,0.0,0.02,0.053243515624999994,-0.06396882812499999,0.505238828125,0.04,0.0,0.0,0.0,0.04,0.0,0.0,0.0,0.04
1614558366.051914,1866,1614558366,39645910,base_imu_link,0.1584711433672361,0.11406349722094138,-0.9702123297118425,0.14340310525483246,0.0025,0.0,0.0,0.0,0.0025,0.0,0.0,0.0,0.0025,-0.0,-0.0,-0.0,0.02,0.0,0.0,0.0,0.02,0.0,0.0,0.0,0.02,0.053243515624999994,-0.06396882812499999,0.522858984375,0.04,0.0,0.0,0.0,0.04,0.0,0.0,0.0,0.04
1614558366.055248,1867,1614558366,60115098,base_imu_link,0.1585336992032454,0.11417170391230604,-0.9701739220286,0.14350766271645463,0.0025,0.0,0.0,0.0,0.0025,0.0,0.0,0.0,0.0025,-0.0,-0.0,-0.0,0.02,0.0,0.0,0.0,0.02,0.0,0.0,0.0,0.02,0.06243664062499999,-0.05477570312499999,0.487235625,0.04,0.0,0.0,0.0,0.04,0.0,0.0,0.0,0.04
1614558366.0754704,1868,1614558366,80158948,base_imu_link,0.1586187306268893,0.1141814154813334,-0.9701579837519984,0.14351372483233324,0.0025,0.0,0.0,0.0,0.0025,0.0,0.0,0.0,0.0025,-0.0,-0.0,-0.0,0.02,0.0,0.0,0.0,0.02,0.0,0.0,0.0,0.02,0.05784007812499999,-0.059372265625,0.505238828125,0.04,0.0,0.0,0.0,0.04,0.0,0.0,0.0,0.04
1614558366.0925546,1869,1614558366,97700119,base_imu_link,0.1587211476666447,0.11423423742571803,-0.9701696131089597,0.14327964992684616,0.0025,0.0,0.0,0.0,0.0025,0.0,0.0,0.0,0.0025,-0.0,-0.0,0.0,0.02,0.0,0.0,0.0,0.02,0.0,0.0,0.0,0.02,0.048646953124999996,-0.059372265625,0.5580992968749999,0.04,0.0,0.0,0.0,0.04,0.0,0.0,0.0,0.04
1614558366.1149771,1870,1614558366,120023012,base_imu_link,0.15884604765984614,0.11418848282982694,-0.970203617843875,0.14294706521829847,0.0025,0.0,0.0,0.0,0.0025,0.0,0.0,0.0,0.0025,-0.0,-0.0,-0.0,0.02,0.0,0.0,0.0,0.02,0.0,0.0,0.0,0.02,0.053243515624999994,-0.05477570312499999,0.505238828125,0.04,0.0,0.0,0.0,0.04,0.0,0.0,0.0,0.04
1614558366.1319396,1871,1614558366,137300014,base_imu_link,0.1589584877637711,0.11422732284592114,-0.9702275366961005,0.14262834542939107,0.0025,0.0,0.0,0.0,0.0025,0.0,0.0,0.0,0.0025,-0.0,-0.0,0.0,0.02,0.0,0.0,0.0,0.02,0.0,0.0,0.0,0.02,0.053243515624999994,-0.059372265625,0.487235625,0.04,0.0,0.0,0.0,0.04,0.0,0.0,0.0,0.04
1614558366.1552231,1872,1614558366,160464048,base_imu_link,0.15913605996754052,0.11430346169857541,-0.9702105114610491,0.14248507469984048,0.0025,0.0,0.0,0.0,0.0025,0.0,0.0,0.0,0.0025,-0.0,-0.0,-0.0,0.02,0.0,0.0,0.0,0.02,0.0,0.0,0.0,0.02,0.04405039062499999,-0.05477570312499999,0.505238828125,0.04,0.0,0.0,0.0,0.04,0.0,0.0,0.0,0.04
1614558366.175287,1873,1614558366,180377960,base_imu_link,0.15927095682435474,0.11424358321580347,-0.9702566143664229,0.1420678298717723,0.0025,0.0,0.0,0.0,0.0025,0.0,0.0,0.0,0.0025,-0.0,-0.0,-0.0,0.02,0.0,0.0,0.0,0.02,0.0,0.0,0.0,0.02,0.048646953124999996,-0.05477570312499999,0.505238828125,0.04,0.0,0.0,0.0,0.04,0.0,0.0,0.0,0.04
1614558366.1950965,1874,1614558366,200270891,base_imu_link,0.1593635477155612,0.11431000753447429,-0.9702554414654585,0.14191849824334632,0.0025,0.0,0.0,0.0,0.0025,0.0,0.0,0.0,0.0025,-0.0,-0.0,-0.0,0.02,0.0,0.0,0.0,0.02,0.0,0.0,0.0,0.02,0.048646953124999996,-0.050179140625,0.505238828125,0.04,0.0,0.0,0.0,0.04,0.0,0.0,0.0,0.04
1614558366.2147114,1875,1614558366,220160007,base_imu_link,0.15945855979405507,0.11430564320925557,-0.970251832905759,0.141839939304624,0.0025,0.0,0.0,0.0,0.0025,0.0,0.0,0.0,0.0025,-0.0,-0.0,-0.0,0.02,0.0,0.0,0.0,0.02,0.0,0.0,0.0,0.02,0.04405039062499999,-0.05477570312499999,0.505238828125,0.04,0.0,0.0,0.0,0.04,0.0,0.0,0.0,0.04
1614558366.2349916,1876,1614558366,240226030,base_imu_link,0.15961104410595642,0.11428845248653538,-0.9703246568480183,0.1411825929086692,0.0025,0.0,0.0,0.0,0.0025,0.0,0.0,0.0,0.0025,-0.0,-0.0,-0.0,0.02,0.0,0.0,0.0,0.02,0.0,0.0,0.0,0.02,0.048646953124999996,-0.050179140625,0.522858984375,0.04,0.0,0.0,0.0,0.04,0.0,0.0,0.0,0.04
1614558366.2551103,1877,1614558366,260533094,base_imu_link,0.1595787586852855,0.1144009823414644,-0.9702900213838824,0.14136587077026877,0.0025,0.0,0.0,0.0,0.0025,0.0,0.0,0.0,0.0025,-0.0,-0.0,-0.0,0.02,0.0,0.0,0.0,0.02,0.0,0.0,0.0,0.02,0.053243515624999994,-0.059372265625,0.5404791406249999,0.04,0.0,0.0,0.0,0.04,0.0,0.0,0.0,0.04
1614558366.2747543,1878,1614558366,280360937,base_imu_link,0.15971887439924293,0.11446178798326527,-0.9702209623874353,0.14163214464348026,0.0025,0.0,0.0,0.0,0.0025,0.0,0.0,0.0,0.0025,-0.0,-0.0,-0.0,0.02,0.0,0.0,0.0,0.02,0.0,0.0,0.0,0.02,0.04405039062499999,-0.06396882812499999,0.522858984375,0.04,0.0,0.0,0.0,0.04,0.0,0.0,0.0,0.04
1614558366.296436,1879,1614558366,300576925,base_imu_link,0.1598115386948028,0.11452807793307235,-0.970219658179623,0.14148288358233027,0.0025,0.0,0.0,0.0,0.0025,0.0,0.0,0.0,0.0025,-0.0,-0.0,-0.0,0.02,0.0,0.0,0.0,0.02,0.0,0.0,0.0,0.02,0.04405039062499999,-0.06396882812499999,0.522858984375,0.04,0.0,0.0,0.0,0.04,0.0,0.0,0.0,0.04
1614558366.3126493,1880,1614558366,317986965,base_imu_link,0.15993654383630784,0.11448175407496536,-0.9702529617008635,0.1411503462281222,0.0025,0.0,0.0,0.0,0.0025,0.0,0.0,0.0,0.0025,-0.0,-0.0,0.0,0.02,0.0,0.0,0.0,0.02,0.0,0.0,0.0,0.02,0.048646953124999996,-0.059372265625,0.5404791406249999,0.04,0.0,0.0,0.0,0.04,0.0,0.0,0.0,0.04
1614558366.3333645,1881,1614558366,338387012,base_imu_link,0.1600092608194041,0.11457588978072032,-0.9702269351620573,0.1411704509414958,0.0025,0.0,0.0,0.0,0.0025,0.0,0.0,0.0,0.0025,-0.0,-0.0,0.0,0.02,0.0,0.0,0.0,0.02,0.0,0.0,0.0,0.02,0.048646953124999996,-0.059372265625,0.522858984375,0.04,0.0,0.0,0.0,0.04,0.0,0.0,0.0,0.04
1614558366.3552783,1882,1614558366,360783100,base_imu_link,0.16006429102268502,0.11462726316729108,-0.9701739021515833,0.1414305937983431,0.0025,0.0,0.0,0.0,0.0025,0.0,0.0,0.0,0.0025,-0.0,-0.0,-0.0,0.02,0.0,0.0,0.0,0.02,0.0,0.0,0.0,0.02,0.039453828125,-0.05477570312499999,0.5404791406249999,0.04,0.0,0.0,0.0,0.04,0.0,0.0,0.0,0.04
1614558366.3769617,1883,1614558366,381058931,base_imu_link,0.16014698881647185,0.1147074360643266,-0.9701601859105992,0.14136604881822593,0.0025,0.0,0.0,0.0,0.0025,0.0,0.0,0.0,0.0025,-0.0,-0.0,-0.0,0.02,0.0,0.0,0.0,0.02,0.0,0.0,0.0,0.02,0.039453828125,-0.05477570312499999,0.5580992968749999,0.04,0.0,0.0,0.0,0.04,0.0,0.0,0.0,0.04
1614558366.3974156,1884,1614558366,400803089,base_imu_link,0.1602520376909011,0.11468894497402074,-0.9701687887459792,0.14120287412025123,0.0025,0.0,0.0,0.0,0.0025,0.0,0.0,0.0,0.0025,-0.0,-0.0,-0.0,0.02,0.0,0.0,0.0,0.02,0.0,0.0,0.0,0.02,0.048646953124999996,-0.06396882812499999,0.5580992968749999,0.04,0.0,0.0,0.0,0.04,0.0,0.0,0.0,0.04
1614558366.4156353,1885,1614558366,420945882,base_imu_link,0.16033476023896945,0.11476907562907679,-0.9701550332604805,0.14113835544498723,0.0025,0.0,0.0,0.0,0.0025,0.0,0.0,0.0,0.0025,-0.0,-0.0,-0.0,0.02,0.0,0.0,0.0,0.02,0.0,0.0,0.0,0.02,0.04405039062499999,-0.06818234375,0.5404791406249999,0.04,0.0,0.0,0.0,0.04,0.0,0.0,0.0,0.04
1614558366.4352777,1886,1614558366,440834999,base_imu_link,0.1603247441372267,0.11478306703940856,-0.9701427129214026,0.14122301690539052,0.0025,0.0,0.0,0.0,0.0025,0.0,0.0,0.0,0.0025,-0.0,-0.0,-0.0,0.02,0.0,0.0,0.0,0.02,0.0,0.0,0.0,0.02,0.048646953124999996,-0.059372265625,0.5404791406249999,0.04,0.0,0.0,0.0,0.04,0.0,0.0,0.0,0.04
1614558366.455814,1887,1614558366,461210966,base_imu_link,0.16042980488010067,0.1147645269341364,-0.9701512762663647,0.14105985333347126,0.0025,0.0,0.0,0.0,0.0025,0.0,0.0,0.0,0.0025,-0.0,-0.0,-0.0,0.02,0.0,0.0,0.0,0.02,0.0,0.0,0.0,0.02,0.053243515624999994,-0.045965624999999996,0.522858984375,0.04,0.0,0.0,0.0,0.04,0.0,0.0,0.0,0.04
1614558366.4748495,1888,1614558366,478817939,base_imu_link,0.16054260592165379,0.11480259653353334,-0.9701743664335298,0.1407413735485841,0.0025,0.0,0.0,0.0,0.0025,0.0,0.0,0.0,0.0025,-0.0,-0.0,0.0,0.02,0.0,0.0,0.0,0.02,0.0,0.0,0.0,0.02,0.04405039062499999,-0.050179140625,0.5404791406249999,0.04,0.0,0.0,0.0,0.04,0.0,0.0,0.0,0.04
1614558366.4960523,1889,1614558366,501286029,base_imu_link,0.1606354036437254,0.11486863471774057,-0.9701728128606617,0.14059223677120716,0.0025,0.0,0.0,0.0,0.0025,0.0,0.0,0.0,0.0025,-0.0,-0.0,-0.0,0.02,0.0,0.0,0.0,0.02,0.0,0.0,0.0,0.02,0.048646953124999996,-0.050179140625,0.5404791406249999,0.04,0.0,0.0,0.0,0.04,0.0,0.0,0.0,0.04
1614558366.5167942,1890,1614558366,521660089,base_imu_link,0.16077054328596924,0.1148078899040666,-0.9702179776165574,0.14017509314049711,0.0025,0.0,0.0,0.0,0.0025,0.0,0.0,0.0,0.0025,-0.0,-0.0,-0.0,0.02,0.0,0.0,0.0,0.02,0.0,0.0,0.0,0.02,0.053243515624999994,-0.0413690625,0.522858984375,0.04,0.0,0.0,0.0,0.04,0.0,0.0,0.0,0.04
1614558366.5361006,1891,1614558366,541297912,base_imu_link,0.16095062758693174,0.11481255519834138,-0.970198009771911,0.14010279969659303,0.0025,0.0,0.0,0.0,0.0025,0.0,0.0,0.0,0.0025,-0.0,-0.0,-0.0,0.02,0.0,0.0,0.0,0.02,0.0,0.0,0.0,0.02,0.053243515624999994,-0.05477570312499999,0.505238828125,0.04,0.0,0.0,0.0,0.04,0.0,0.0,0.0,0.04
1614558366.556496,1892,1614558366,561625003,base_imu_link,0.16107355345501287,0.11483629493375887,-0.9702329243801153,0.13969970720109373,0.0025,0.0,0.0,0.0,0.0025,0.0,0.0,0.0,0.0025,-0.0,-0.0,-0.0,0.02,0.0,0.0,0.0,0.02,0.0,0.0,0.0,0.02,0.05784007812499999,-0.045965624999999996,0.5404791406249999,0.04,0.0,0.0,0.0,0.04,0.0,0.0,0.0,0.04
1614558366.576963,1893,1614558366,581984996,base_imu_link,0.16112851490604568,0.11488778932661838,-0.9701802012602588,0.13995990365250383,0.0025,0.0,0.0,0.0,0.0025,0.0,0.0,0.0,0.0025,-0.0,-0.0,-0.0,0.02,0.0,0.0,0.0,0.02,0.0,0.0,0.0,0.02,0.053243515624999994,-0.045965624999999996,0.5580992968749999,0.04,0.0,0.0,0.0,0.04,0.0,0.0,0.0,0.04
1614558366.5972397,1894,1614558366,601799011,base_imu_link,0.16119129509422234,0.11499584720427422,-0.9701418276717556,0.1400648268243106,0.0025,0.0,0.0,0.0,0.0025,0.0,0.0,0.0,0.0025,-0.0,-0.0,-0.0,0.02,0.0,0.0,0.0,0.02,0.0,0.0,0.0,0.02,0.048646953124999996,-0.050179140625,0.5404791406249999,0.04,0.0,0.0,0.0,0.04,0.0,0.0,0.0,0.04
1614558366.6164105,1895,1614558366,621701002,base_imu_link,0.1612863578080255,0.11499110638565596,-0.9701379147760966,0.13998636559005168,0.0025,0.0,0.0,0.0,0.0025,0.0,0.0,0.0,0.0025,-0.0,-0.0,-0.0,0.02,0.0,0.0,0.0,0.02,0.0,0.0,0.0,0.02,0.053243515624999994,-0.06396882812499999,0.505238828125,0.04,0.0,0.0,0.0,0.04,0.0,0.0,0.0,0.04
1614558366.6368856,1896,1614558366,641947031,base_imu_link,0.16134912367306437,0.11509917118644093,-0.9700995142710018,0.1400913041316084,0.0025,0.0,0.0,0.0,0.0025,0.0,0.0,0.0,0.0025,-0.0,-0.0,-0.0,0.02,0.0,0.0,0.0,0.02,0.0,0.0,0.0,0.02,0.05784007812499999,-0.059372265625,0.5404791406249999,0.04,0.0,0.0,0.0,0.04,0.0,0.0,0.0,0.04
1614558366.6535711,1897,1614558366,659204006,base_imu_link,0.1614140552253664,0.11513667547970909,-0.9700588995733727,0.14026681750749123,0.0025,0.0,0.0,0.0,0.0025,0.0,0.0,0.0,0.0025,-0.0,-0.0,0.0,0.02,0.0,0.0,0.0,0.02,0.0,0.0,0.0,0.02,0.048646953124999996,-0.045965624999999996,0.5404791406249999,0.04,0.0,0.0,0.0,0.04,0.0,0.0,0.0,0.04
1614558366.673961,1898,1614558366,679244995,base_imu_link,0.16143654061956372,0.11530112262780534,-0.9699713865915279,0.14071035380264035,0.0025,0.0,0.0,0.0,0.0025,0.0,0.0,0.0,0.0025,-0.0,-0.0,0.0,0.02,0.0,0.0,0.0,0.02,0.0,0.0,0.0,0.02,0.053243515624999994,-0.05477570312499999,0.522858984375,0.04,0.0,0.0,0.0,0.04,0.0,0.0,0.0,0.04
1614558366.6939378,1899,1614558366,699218988,base_imu_link,0.1616020186879239,0.11519771046131505,-0.9700532212242173,0.14003936251275384,0.0025,0.0,0.0,0.0,0.0025,0.0,0.0,0.0,0.0025,-0.0,-0.0,0.0,0.02,0.0,0.0,0.0,0.02,0.0,0.0,0.0,0.02,0.04405039062499999,-0.05477570312499999,0.522858984375,0.04,0.0,0.0,0.0,0.04,0.0,0.0,0.0,0.04
1614558366.717413,1900,1614558366,722839117,base_imu_link,0.16165469295044835,0.11531989655916201,-0.970002533291336,0.1402289810027546,0.0025,0.0,0.0,0.0,0.0025,0.0,0.0,0.0,0.0025,-0.0,-0.0,-0.0,0.02,0.0,0.0,0.0,0.02,0.0,0.0,0.0,0.02,0.048646953124999996,-0.05477570312499999,0.505238828125,0.04,0.0,0.0,0.0,0.04,0.0,0.0,0.0,0.04
1614558366.7380378,1901,1614558366,742506980,base_imu_link,0.16176989794436566,0.11528688081143564,-0.9700230335237955,0.1399812475481364,0.0025,0.0,0.0,0.0,0.0025,0.0,0.0,0.0,0.0025,-0.0,-0.0,-0.0,0.02,0.0,0.0,0.0,0.02,0.0,0.0,0.0,0.02,0.048646953124999996,-0.06396882812499999,0.522858984375,0.04,0.0,0.0,0.0,0.04,0.0,0.0,0.0,0.04
1614558366.7577906,1902,1614558366,762473106,base_imu_link,0.1619030908187389,0.11529608141233616,-0.9700699542571085,0.13949367957692874,0.0025,0.0,0.0,0.0,0.0025,0.0,0.0,0.0,0.0025,-0.0,-0.0,-0.0,0.02,0.0,0.0,0.0,0.02,0.0,0.0,0.0,0.02,0.053243515624999994,-0.059372265625,0.522858984375,0.04,0.0,0.0,0.0,0.04,0.0,0.0,0.0,0.04
1614558366.7771032,1903,1614558366,782747983,base_imu_link,0.16198811252827247,0.11530534303058892,-0.9700537635441444,0.13949991075971122,0.0025,0.0,0.0,0.0,0.0025,0.0,0.0,0.0,0.0025,-0.0,-0.0,-0.0,0.02,0.0,0.0,0.0,0.02,0.0,0.0,0.0,0.02,0.053243515624999994,-0.050179140625,0.5404791406249999,0.04,0.0,0.0,0.0,0.04,0.0,0.0,0.0,0.04
1614558366.7975206,1904,1614558366,802719116,base_imu_link,0.1621917701667688,0.11521532853290507,-0.9701851551431511,0.1384197330624663,0.0025,0.0,0.0,0.0,0.0025,0.0,0.0,0.0,0.0025,-0.0,-0.0,-0.0,0.02,0.0,0.0,0.0,0.02,0.0,0.0,0.0,0.02,0.05784007812499999,-0.045965624999999996,0.5580992968749999,0.04,0.0,0.0,0.0,0.04,0.0,0.0,0.0,0.04
1614558366.8171628,1905,1614558366,822489023,base_imu_link,0.16225668637428634,0.11525281141342836,-0.9701447812640285,0.1385953122378514,0.0025,0.0,0.0,0.0,0.0025,0.0,0.0,0.0,0.0025,-0.0,-0.0,-0.0,0.02,0.0,0.0,0.0,0.02,0.0,0.0,0.0,0.02,0.06243664062499999,-0.05477570312499999,0.5580992968749999,0.04,0.0,0.0,0.0,0.04,0.0,0.0,0.0,0.04
1614558366.8343601,1906,1614558366,839901924,base_imu_link,0.16233968207412133,0.11533248024640191,-0.9701306041849533,0.13853107033450632,0.0025,0.0,0.0,0.0,0.0025,0.0,0.0,0.0,0.0025,-0.0,-0.0,0.0,0.02,0.0,0.0,0.0,0.02,0.0,0.0,0.0,0.02,0.06243664062499999,-0.050179140625,0.5404791406249999,0.04,0.0,0.0,0.0,0.04,0.0,0.0,0.0,0.04
1614558366.8577156,1907,1614558366,862571001,base_imu_link,0.16246296588590442,0.11535542764077221,-0.9701646818501576,0.13812820175457494,0.0025,0.0,0.0,0.0,0.0025,0.0,0.0,0.0,0.0025,-0.0,-0.0,-0.0,0.02,0.0,0.0,0.0,0.02,0.0,0.0,0.0,0.02,0.048646953124999996,-0.045965624999999996,0.522858984375,0.04,0.0,0.0,0.0,0.04,0.0,0.0,0.0,0.04
1614558366.8770044,1908,1614558366,882730007,base_imu_link,0.16253792534607997,0.11537873903740832,-0.9701364028647371,0.13821913485114248,0.0025,0.0,0.0,0.0,0.0025,0.0,0.0,0.0,0.0025,-0.0,-0.0,-0.0,0.02,0.0,0.0,0.0,0.02,0.0,0.0,0.0,0.02,0.034857265625,-0.050179140625,0.522858984375,0.04,0.0,0.0,0.0,0.04,0.0,0.0,0.0,0.04
1614558366.8978672,1909,1614558366,903121948,base_imu_link,0.16260081028739803,0.11548672097998246,-0.9700980335851833,0.13832425313492216,0.0025,0.0,0.0,0.0,0.0025,0.0,0.0,0.0,0.0025,-0.0,-0.0,-0.0,0.02,0.0,0.0,0.0,0.02,0.0,0.0,0.0,0.02,0.039453828125,-0.050179140625,0.5580992968749999,0.04,0.0,0.0,0.0,0.04,0.0,0.0,0.0,0.04
1614558366.9174583,1910,1614558366,923176050,base_imu_link,0.16268583320551314,0.1154958594929345,-0.9700817961329835,0.13833052781516203,0.0025,0.0,0.0,0.0,0.0025,0.0,0.0,0.0,0.0025,-0.0,-0.0,-0.0,0.02,0.0,0.0,0.0,0.02,0.0,0.0,0.0,0.02,0.039453828125,-0.045965624999999996,0.522858984375,0.04,0.0,0.0,0.0,0.04,0.0,0.0,0.0,0.04
1614558366.9378166,1911,1614558366,943238973,base_imu_link,0.16278903782345935,0.11554703676534736,-0.9700916548517653,0.13809704068597212,0.0025,0.0,0.0,0.0,0.0025,0.0,0.0,0.0,0.0025,-0.0,-0.0,-0.0,0.02,0.0,0.0,0.0,0.02,0.0,0.0,0.0,0.02,0.04405039062499999,-0.0413690625,0.505238828125,0.04,0.0,0.0,0.0,0.04,0.0,0.0,0.0,0.04
1614558366.9579744,1912,1614558366,963190078,base_imu_link,0.16286200769527923,0.115640804451153,-0.9700653156016946,0.13811753785069356,0.0025,0.0,0.0,0.0,0.0025,0.0,0.0,0.0,0.0025,-0.0,-0.0,-0.0,0.02,0.0,0.0,0.0,0.02,0.0,0.0,0.0,0.02,0.04405039062499999,-0.0413690625,0.522858984375,0.04,0.0,0.0,0.0,0.04,0.0,0.0,0.0,0.04
1614558366.9775176,1913,1614558366,983009099,base_imu_link,0.1629268409871829,0.1156783530891538,-0.9700249341087472,0.13829313186069314,0.0025,0.0,0.0,0.0,0.0025,0.0,0.0,0.0,0.0025,-0.0,-0.0,-0.0,0.02,0.0,0.0,0.0,0.02,0.0,0.0,0.0,0.02,0.039453828125,-0.03677249999999999,0.5404791406249999,0.04,0.0,0.0,0.0,0.04,0.0,0.0,0.0,0.04
1614558366.9981446,1914,1614558367,3698110,base_imu_link,0.16303009261051102,0.1157294493974616,-0.970034743916353,0.1380596937585474,0.0025,0.0,0.0,0.0,0.0025,0.0,0.0,0.0,0.0025,-0.0,-0.0,-0.0,0.02,0.0,0.0,0.0,0.02,0.0,0.0,0.0,0.02,0.034857265625,-0.0413690625,0.5580992968749999,0.04,0.0,0.0,0.0,0.04,0.0,0.0,0.0,0.04
1614558367.0181289,1915,1614558367,23112058,base_imu_link,0.1631353085681608,0.11571007885451129,-0.9700425516208153,0.13789668884651113,0.0025,0.0,0.0,0.0,0.0025,0.0,0.0,0.0,0.0025,-0.0,-0.0,-0.0,0.02,0.0,0.0,0.0,0.02,0.0,0.0,0.0,0.02,0.04405039062499999,-0.050179140625,0.5580992968749999,0.04,0.0,0.0,0.0,0.04,0.0,0.0,0.0,0.04
1614558367.0375822,1916,1614558367,43363094,base_imu_link,0.16320829223989655,0.11580381363239689,-0.9700161686547628,0.13791723112310486,0.0025,0.0,0.0,0.0,0.0025,0.0,0.0,0.0,0.0025,-0.0,-0.0,-0.0,0.02,0.0,0.0,0.0,0.02,0.0,0.0,0.0,0.02,0.048646953124999996,-0.05477570312499999,0.505238828125,0.04,0.0,0.0,0.0,0.04,0.0,0.0,0.0,0.04
1614558367.0577278,1917,1614558367,63508033,base_imu_link,0.16327309339565368,0.11584139408185101,-0.9699757926323961,0.1380928314480603,0.0025,0.0,0.0,0.0,0.0025,0.0,0.0,0.0,0.0025,-0.0,-0.0,-0.0,0.02,0.0,0.0,0.0,0.02,0.0,0.0,0.0,0.02,0.048646953124999996,-0.045965624999999996,0.5404791406249999,0.04,0.0,0.0,0.0,0.04,0.0,0.0,0.0,0.04
1614558367.07789,1918,1614558367,83182096,base_imu_link,0.16336628733740727,0.1159066236546627,-0.969973472099664,0.1379440980161549,0.0025,0.0,0.0,0.0,0.0025,0.0,0.0,0.0,0.0025,-0.0,-0.0,-0.0,0.02,0.0,0.0,0.0,0.02,0.0,0.0,0.0,0.02,0.04405039062499999,-0.05477570312499999,0.5761025,0.04,0.0,0.0,0.0,0.04,0.0,0.0,0.0,0.04
1614558367.0991983,1919,1614558367,103918075,base_imu_link,0.16342913847668367,0.11601460923641851,-0.9699350048544415,0.13804931545829713,0.0025,0.0,0.0,0.0,0.0025,0.0,0.0,0.0,0.0025,-0.0,-0.0,-0.0,0.02,0.0,0.0,0.0,0.02,0.0,0.0,0.0,0.02,0.04405039062499999,-0.05477570312499999,0.5580992968749999,0.04,0.0,0.0,0.0,0.04,0.0,0.0,0.0,0.04
1614558367.1176767,1920,1614558367,123354911,base_imu_link,0.1635242740113129,0.1160094235734359,-0.9699307354414013,0.13797098933230326,0.0025,0.0,0.0,0.0,0.0025,0.0,0.0,0.0,0.0025,-0.0,-0.0,-0.0,0.02,0.0,0.0,0.0,0.02,0.0,0.0,0.0,0.02,0.053243515624999994,-0.050179140625,0.5404791406249999,0.04,0.0,0.0,0.0,0.04,0.0,0.0,0.0,0.04
1614558367.1398108,1921,1614558367,144206047,base_imu_link,0.1636822522537416,0.11611221337936886,-0.9698879586827158,0.13799790506946474,0.0025,0.0,0.0,0.0,0.0025,0.0,0.0,0.0,0.0025,-0.0,-0.0,-0.0,0.02,0.0,0.0,0.0,0.02,0.0,0.0,0.0,0.02,0.048646953124999996,-0.059372265625,0.5404791406249999,0.04,0.0,0.0,0.0,0.04,0.0,0.0,0.0,0.04
1614558367.1591318,1922,1614558367,163563966,base_imu_link,0.16378752443021832,0.1160927014173853,-0.9698956944459833,0.1378349498994294,0.0025,0.0,0.0,0.0,0.0025,0.0,0.0,0.0,0.0025,-0.0,-0.0,-0.0,0.02,0.0,0.0,0.0,0.02,0.0,0.0,0.0,0.02,0.048646953124999996,-0.06396882812499999,0.5404791406249999,0.04,0.0,0.0,0.0,0.04,0.0,0.0,0.0,0.04
1614558367.1781774,1923,1614558367,183645009,base_imu_link,0.16387064145579572,0.11617209581114818,-0.9698812434098498,0.1377709356340256,0.0025,0.0,0.0,0.0,0.0025,0.0,0.0,0.0,0.0025,-0.0,-0.0,-0.0,0.02,0.0,0.0,0.0,0.02,0.0,0.0,0.0,0.02,0.048646953124999996,-0.06396882812499999,0.522858984375,0.04,0.0,0.0,0.0,0.04,0.0,0.0,0.0,0.04
1614558367.196128,1924,1614558367,201153993,base_imu_link,0.16397592340110756,0.11615252551819637,-0.9698889256547818,0.13760799123856163,0.0025,0.0,0.0,0.0,0.0025,0.0,0.0,0.0,0.0025,-0.0,-0.0,0.0,0.02,0.0,0.0,0.0,0.02,0.0,0.0,0.0,0.02,0.053243515624999994,-0.059372265625,0.522858984375,0.04,0.0,0.0,0.0,0.04,0.0,0.0,0.0,0.04
1614558367.2184906,1925,1614558367,223951101,base_imu_link,0.16403877597924227,0.11626050936464925,-0.9698504149627254,0.13771327653546553,0.0025,0.0,0.0,0.0,0.0025,0.0,0.0,0.0,0.0025,-0.0,-0.0,-0.0,0.02,0.0,0.0,0.0,0.02,0.0,0.0,0.0,0.02,0.04405039062499999,-0.06396882812499999,0.5761025,0.04,0.0,0.0,0.0,0.04,0.0,0.0,0.0,0.04
1614558367.2385802,1926,1614558367,243985891,base_imu_link,0.1641237807255574,0.11626954588428362,-0.9698340503022427,0.13771961434217858,0.0025,0.0,0.0,0.0,0.0025,0.0,0.0,0.0,0.0025,-0.0,-0.0,-0.0,0.02,0.0,0.0,0.0,0.02,0.0,0.0,0.0,0.02,0.04405039062499999,-0.05477570312499999,0.5580992968749999,0.04,0.0,0.0,0.0,0.04,0.0,0.0,0.0,0.04
1614558367.2598171,1927,1614558367,264141082,base_imu_link,0.16417645302737455,0.11639186960295916,-0.9697834723578234,0.13790954174124748,0.0025,0.0,0.0,0.0,0.0025,0.0,0.0,0.0,0.0025,-0.0,-0.0,-0.0,0.02,0.0,0.0,0.0,0.02,0.0,0.0,0.0,0.02,0.048646953124999996,-0.05477570312499999,0.5580992968749999,0.04,0.0,0.0,0.0,0.04,0.0,0.0,0.0,0.04
1614558367.2783077,1928,1614558367,283894062,base_imu_link,0.16422908402101336,0.11651421061484026,-0.96973284130773,0.138099468411925,0.0025,0.0,0.0,0.0,0.0025,0.0,0.0,0.0,0.0025,-0.0,-0.0,-0.0,0.02,0.0,0.0,0.0,0.02,0.0,0.0,0.0,0.02,0.048646953124999996,-0.059372265625,0.5580992968749999,0.04,0.0,0.0,0.0,0.04,0.0,0.0,0.0,0.04
1614558367.2993627,1929,1614558367,304131984,base_imu_link,0.16429374110133468,0.11655194773003766,-0.9696923319177534,0.1382750575308928,0.0025,0.0,0.0,0.0,0.0025,0.0,0.0,0.0,0.0025,-0.0,-0.0,-0.0,0.02,0.0,0.0,0.0,0.02,0.0,0.0,0.0,0.02,0.05784007812499999,-0.050179140625,0.5580992968749999,0.04,0.0,0.0,0.0,0.04,0.0,0.0,0.0,0.04
1614558367.318846,1930,1614558367,323856115,base_imu_link,0.16443144961834397,0.11641901140773742,-0.9697343062214167,0.13792855939406662,0.0025,0.0,0.0,0.0,0.0025,0.0,0.0,0.0,0.0025,0.01,-0.0,0.01,0.02,0.0,0.0,0.0,0.02,0.0,0.0,0.0,0.02,0.034857265625,0.039453828125,0.5761025,0.04,0.0,0.0,0.0,0.04,0.0,0.0,0.0,0.04
1614558367.3369446,1931,1614558367,342075109,base_imu_link,0.1647529573059987,0.11614915004450463,-0.9697515959871083,0.13765057240463355,0.0025,0.0,0.0,0.0,0.0025,0.0,0.0,0.0,0.0025,0.03,0.01,0.02,0.02,0.0,0.0,0.0,0.02,0.0,0.0,0.0,0.02,0.053243515624999994,-0.018769296874999997,0.487235625,0.04,0.0,0.0,0.0,0.04,0.0,0.0,0.0,0.04
1614558367.3590436,1932,1614558367,364331960,base_imu_link,0.16536221255681335,0.1151210513662931,-0.9698385013538285,0.13717056346896894,0.0025,0.0,0.0,0.0,0.0025,0.0,0.0,0.0,0.0025,0.08,0.02,0.06,0.02,0.0,0.0,0.0,0.02,0.0,0.0,0.0,0.02,-0.08886687499999998,0.15666617187499998,0.9660442187499999,0.04,0.0,0.0,0.0,0.04,0.0,0.0,0.0,0.04
1614558367.3791304,1933,1614558367,384138107,base_imu_link,0.16580402728473403,0.11460588717539227,-0.9698686942995107,0.13685478062043177,0.0025,0.0,0.0,0.0,0.0025,0.0,0.0,0.0,0.0025,0.03,0.01,0.07,0.02,0.0,0.0,0.0,0.02,0.0,0.0,0.0,0.02,0.19075734375,0.255492265625,0.1149140625,0.04,0.0,0.0,0.0,0.04,0.0,0.0,0.0,0.04
1614558367.419295,1934,1614558367,402142047,base_imu_link,0.16606688664455552,0.11435229469525084,-0.9698114004663674,0.13715388942198525,0.0025,0.0,0.0,0.0,0.0025,0.0,0.0,0.0,0.0025,0.02,0.0,0.04,0.02,0.0,0.0,0.0,0.02,0.0,0.0,0.0,0.02,0.053243515624999994,-0.06396882812499999,1.1790182812499999,0.04,0.0,0.0,0.0,0.04,0.0,0.0,0.0,0.04
1614558367.4602025,1935,1614558367,424319982,base_imu_link,0.1664947165856909,0.11365577333011051,-0.9698109982391742,0.13721698958992484,0.0025,0.0,0.0,0.0,0.0025,0.0,0.0,0.0,0.0025,0.05,0.0,0.09,0.02,0.0,0.0,0.0,0.02,0.0,0.0,0.0,0.02,-0.0383046875,0.008043984374999999,0.487235625,0.04,0.0,0.0,0.0,0.04,0.0,0.0,0.0,0.04
1614558367.5705478,1936,1614558367,445084095,base_imu_link,0.16675665626208694,0.11313687118603911,-0.9697325690909722,0.13788042070847084,0.0025,0.0,0.0,0.0,0.0025,0.0,0.0,0.0,0.0025,0.04,0.0,0.09,0.02,0.0,0.0,0.0,0.02,0.0,0.0,0.0,0.02,0.19075734375,0.089249921875,0.5580992968749999,0.04,0.0,0.0,0.0,0.04,0.0,0.0,0.0,0.04
1614558367.5705829,1937,1614558367,464442014,base_imu_link,0.16667820145308726,0.11291750313778984,-0.9697425633429769,0.13808466781827644,0.0025,0.0,0.0,0.0,0.0025,0.0,0.0,0.0,0.0025,0.01,-0.03,0.05,0.02,0.0,0.0,0.0,0.02,0.0,0.0,0.0,0.02,0.346657421875,-0.12219195312499999,0.04405039062499999,0.04,0.0,0.0,0.0,0.04,0.0,0.0,0.0,0.04
1614558367.5705945,1938,1614558367,482284069,base_imu_link,0.16618937232352055,0.11216180257879957,-0.9699486293785452,0.13784222479222574,0.0025,0.0,0.0,0.0,0.0025,0.0,0.0,0.0,0.0025,0.05,-0.08,0.03,0.02,0.0,0.0,0.0,0.02,0.0,0.0,0.0,0.02,1.2456684375,-0.10878531249999998,1.232261796875,0.04,0.0,0.0,0.0,0.04,0.0,0.0,0.0,0.04
1614558367.5706499,1939,1614558367,504196882,base_imu_link,0.16621899133963058,0.11084466992820052,-0.970151511884711,0.13744362500441215,0.0025,0.0,0.0,0.0,0.0025,0.0,0.0,0.0,0.0025,0.11,-0.05,0.06,0.02,0.0,0.0,0.0,0.02,0.0,0.0,0.0,0.02,1.5896445312499998,0.5121336718749999,-0.647732265625,0.04,0.0,0.0,0.0,0.04,0.0,0.0,0.0,0.04
1614558367.576299,1940,1614558367,522274017,base_imu_link,0.16631576221917693,0.11050310721980486,-0.9701233136033304,0.13780017030293082,0.0025,0.0,0.0,0.0,0.0025,0.0,0.0,0.0,0.0025,0.0,-0.02,0.09,0.02,0.0,0.0,0.0,0.02,0.0,0.0,0.0,0.02,1.057592421875,0.43131078124999994,1.019287734375,0.04,0.0,0.0,0.0,0.04,0.0,0.0,0.0,0.04
1614558367.5763218,1941,1614558367,542443037,base_imu_link,0.16627434661795634,0.10976335282216042,-0.97013947378066,0.138326604261774,0.0025,0.0,0.0,0.0,0.0025,0.0,0.0,0.0,0.0025,0.04,-0.04,0.12,0.02,0.0,0.0,0.0,0.02,0.0,0.0,0.0,0.02,1.498096328125,0.4133075781249999,3.0942526562499997,0.04,0.0,0.0,0.0,0.04,0.0,0.0,0.0,0.04
1614558367.576333,1942,1614558367,564382076,base_imu_link,0.16647870282080193,0.1092062468538236,-0.9699673094617665,0.13972206601216114,0.0025,0.0,0.0,0.0,0.0025,0.0,0.0,0.0,0.0025,0.03,-0.01,0.15,0.02,0.0,0.0,0.0,0.02,0.0,0.0,0.0,0.02,1.4337444531249999,0.6741625,-1.6585929687499998,0.04,0.0,0.0,0.0,0.04,0.0,0.0,0.0,0.04
1614558367.5794282,1943,1614558367,584700107,base_imu_link,0.16704169948636072,0.10906557658227045,-0.9696472622289543,0.14137169974708122,0.0025,0.0,0.0,0.0,0.0025,0.0,0.0,0.0,0.0025,-0.01,0.02,0.18,0.02,0.0,0.0,0.0,0.02,0.0,0.0,0.0,0.02,0.6496474999999999,0.32329156249999996,0.9840474218749999,0.04,0.0,0.0,0.0,0.04,0.0,0.0,0.0,0.04
1614558367.6005647,1944,1614558367,605511903,base_imu_link,0.16657192604090304,0.10763536101759687,-0.9696624359359761,0.14290970172925455,0.0025,0.0,0.0,0.0,0.0025,0.0,0.0,0.0,0.0025,0.09,-0.1,0.21,0.02,0.0,0.0,0.0,0.02,0.0,0.0,0.0,0.02,1.8876549999999999,0.7687750781249999,1.07253125,0.04,0.0,0.0,0.0,0.04,0.0,0.0,0.0,0.04
1614558367.6173148,1945,1614558367,622796058,base_imu_link,0.1669387942662503,0.10720067776677113,-0.9692893086950002,0.14531926818162882,0.0025,0.0,0.0,0.0,0.0025,0.0,0.0,0.0,0.0025,0.01,-0.01,0.24,0.02,0.0,0.0,0.0,0.02,0.0,0.0,0.0,0.02,1.2548615625,0.696762265625,-2.119398359375,0.04,0.0,0.0,0.0,0.04,0.0,0.0,0.0,0.04
1614558367.6405153,1946,1614558367,645493030,base_imu_link,0.167781984624807,0.1072089809774932,-0.9688016176691812,0.14757664325599093,0.0025,0.0,0.0,0.0,0.0025,0.0,0.0,0.0,0.0025,-0.06,0.04,0.29,0.02,0.0,0.0,0.0,0.02,0.0,0.0,0.0,0.02,0.067033203125,0.10265656249999999,1.8884210937499997,0.04,0.0,0.0,0.0,0.04,0.0,0.0,0.0,0.04
1614558367.6601033,1947,1614558367,665165901,base_imu_link,0.16750942720135095,0.1060513175470757,-0.9686688258584049,0.14958079975486163,0.0025,0.0,0.0,0.0,0.0025,0.0,0.0,0.0,0.0025,0.04,-0.09,0.32,0.02,0.0,0.0,0.0,0.02,0.0,0.0,0.0,0.02,1.0208199218749998,0.35470140624999996,2.9521422656249996,0.04,0.0,0.0,0.0,0.04,0.0,0.0,0.0,0.04
1614558367.6786168,1948,1614558367,683022022,base_imu_link,0.16748826690464466,0.10493916980628906,-0.9684664724528049,0.15168435260258667,0.0025,0.0,0.0,0.0,0.0025,0.0,0.0,0.0,0.0025,0.04,-0.06,0.3,0.02,0.0,0.0,0.0,0.02,0.0,0.0,0.0,0.02,0.736599140625,0.516730234375,-3.7331748437499996,0.04,0.0,0.0,0.0,0.04,0.0,0.0,0.0,0.04
1614558367.7006342,1949,1614558367,705621957,base_imu_link,0.16800864026786483,0.10418641967485673,-0.9680869275934756,0.15403242312351745,0.0025,0.0,0.0,0.0,0.0025,0.0,0.0,0.0,0.0025,0.02,-0.0,0.31,0.02,0.0,0.0,0.0,0.02,0.0,0.0,0.0,0.02,1.6126273437499998,0.70557234375,0.664586328125,0.04,0.0,0.0,0.0,0.04,0.0,0.0,0.0,0.04
1614558367.7177,1950,1614558367,722942113,base_imu_link,0.16830380696532893,0.10391075911481532,-0.9675435430870829,0.15727642840443073,0.0025,0.0,0.0,0.0,0.0025,0.0,0.0,0.0,0.0025,-0.02,-0.01,0.32,0.02,0.0,0.0,0.0,0.02,0.0,0.0,0.0,0.02,0.420202421875,0.44471742187499996,1.8351775781249997,0.04,0.0,0.0,0.0,0.04,0.0,0.0,0.0,0.04
1614558367.741334,1951,1614558367,745860099,base_imu_link,0.16951538299542784,0.10340146213032261,-0.9668708005478864,0.16041673106354604,0.0025,0.0,0.0,0.0,0.0025,0.0,0.0,0.0,0.0025,-0.01,0.07,0.38,0.02,0.0,0.0,0.0,0.02,0.0,0.0,0.0,0.02,0.11759539062499999,0.13866296875,0.22140109375,0.04,0.0,0.0,0.0,0.04,0.0,0.0,0.0,0.04
1614558367.760178,1952,1614558367,765634059,base_imu_link,0.16980822947483082,0.10206035059172486,-0.9664106023864677,0.16370521566138993,0.0025,0.0,0.0,0.0,0.0025,0.0,0.0,0.0,0.0025,0.06,-0.04,0.4,0.02,0.0,0.0,0.0,0.02,0.0,0.0,0.0,0.02,0.8833060937499999,0.33669820312499993,1.07253125,0.04,0.0,0.0,0.0,0.04,0.0,0.0,0.0,0.04
1614558367.7797947,1953,1614558367,785147905,base_imu_link,0.1705012273272622,0.10102179884595086,-0.9658390709359145,0.16696950826865115,0.0025,0.0,0.0,0.0,0.0025,0.0,0.0,0.0,0.0025,0.03,0.01,0.38,0.02,0.0,0.0,0.0,0.02,0.0,0.0,0.0,0.02,1.2410718749999998,0.53933,-2.03091453125,0.04,0.0,0.0,0.0,0.04,0.0,0.0,0.0,0.04
1614558367.8014598,1954,1614558367,806399106,base_imu_link,0.1714352688566048,0.10057529407310425,-0.9651031228157306,0.1705007951462306,0.0025,0.0,0.0,0.0,0.0025,0.0,0.0,0.0,0.0025,-0.01,0.05,0.38,0.02,0.0,0.0,0.0,0.02,0.0,0.0,0.0,0.02,0.63126125,0.36810804687499993,-0.8250829687499999,0.04,0.0,0.0,0.0,0.04,0.0,0.0,0.0,0.04
1614558367.8203485,1955,1614558367,825972080,base_imu_link,0.17231841919797278,0.09990246696051437,-0.9643646996282104,0.17414530028486686,0.0025,0.0,0.0,0.0,0.0025,0.0,0.0,0.0,0.0025,0.02,0.04,0.38,0.02,0.0,0.0,0.0,0.02,0.0,0.0,0.0,0.02,0.21374015624999998,0.25127874999999994,3.2183598437499996,0.04,0.0,0.0,0.0,0.04,0.0,0.0,0.0,0.04
1614558367.841189,1956,1614558367,846091032,base_imu_link,0.17270920799160813,0.09858727981109613,-0.9637587420472341,0.17782340920669953,0.0025,0.0,0.0,0.0,0.0025,0.0,0.0,0.0,0.0025,0.05,-0.03,0.42,0.02,0.0,0.0,0.0,0.02,0.0,0.0,0.0,0.02,0.369640234375,0.42211765625,0.07929070312499999,0.04,0.0,0.0,0.0,0.04,0.0,0.0,0.0,0.04
1614558367.8632169,1957,1614558367,866267919,base_imu_link,0.1733433436135863,0.09747100942381151,-0.9630819465798388,0.18145151340993027,0.0025,0.0,0.0,0.0,0.0025,0.0,0.0,0.0,0.0025,0.02,-0.01,0.46,0.02,0.0,0.0,0.0,0.02,0.0,0.0,0.0,0.02,1.1813165625,0.269281953125,-0.647732265625,0.04,0.0,0.0,0.0,0.04,0.0,0.0,0.0,0.04
1614558367.8819587,1958,1614558367,885974884,base_imu_link,0.1745968828608155,0.0964829880398117,-0.962323546417629,0.18477108411327162,0.0025,0.0,0.0,0.0,0.0025,0.0,0.0,0.0,0.0025,0.02,0.06,0.46,0.02,0.0,0.0,0.0,0.02,0.0,0.0,0.0,0.02,-0.0019152343749999998,0.13866296875,1.6578268749999998,0.04,0.0,0.0,0.0,0.04,0.0,0.0,0.0,0.04
1614558367.900632,1959,1614558367,906105995,base_imu_link,0.17569142462202292,0.09558406792321551,-0.9616329432248379,0.18777191424243853,0.0025,0.0,0.0,0.0,0.0025,0.0,0.0,0.0,0.0025,0.0,0.04,0.44,0.02,0.0,0.0,0.0,0.02,0.0,0.0,0.0,0.02,0.19075734375,0.27809203125,0.061670546874999996,0.04,0.0,0.0,0.0,0.04,0.0,0.0,0.0,0.04
1614558367.9216936,1960,1614558367,926592111,base_imu_link,0.1756665271150086,0.09483977792174253,-0.9609540866987141,0.191608796854808,0.0025,0.0,0.0,0.0,0.0025,0.0,0.0,0.0,0.0025,-0.01,-0.05,0.42,0.02,0.0,0.0,0.0,0.02,0.0,0.0,0.0,0.02,0.25970578125,0.47612726562499996,0.8066967187499999,0.04,0.0,0.0,0.0,0.04,0.0,0.0,0.0,0.04
1614558367.9424849,1961,1614558367,947050094,base_imu_link,0.17678791453994336,0.09405691640532135,-0.9600400458600493,0.19550560118312338,0.0025,0.0,0.0,0.0,0.0025,0.0,0.0,0.0,0.0025,0.0,0.05,0.45,0.02,0.0,0.0,0.0,0.02,0.0,0.0,0.0,0.02,0.11299882812499999,0.44471742187499996,-0.04481648437499999,0.04,0.0,0.0,0.0,0.04,0.0,0.0,0.0,0.04
1614558367.9587662,1962,1614558367,964176893,base_imu_link,0.17712827542034706,0.09326147603113855,-0.9592202455826212,0.19956049608958845,0.0025,0.0,0.0,0.0,0.0025,0.0,0.0,0.0,0.0025,-0.0,-0.02,0.45,0.02,0.0,0.0,0.0,0.02,0.0,0.0,0.0,0.02,0.48455429687499996,0.44012085937499995,2.101012109375,0.04,0.0,0.0,0.0,0.04,0.0,0.0,0.0,0.04
1614558367.9815776,1963,1614558367,986669063,base_imu_link,0.17760489867612217,0.09235686392160189,-0.9584245169425487,0.20334491627836002,0.0025,0.0,0.0,0.0,0.0025,0.0,0.0,0.0,0.0025,0.0,-0.01,0.44,0.02,0.0,0.0,0.0,0.02,0.0,0.0,0.0,0.02,0.38342992187499997,0.6067462499999999,-0.25740749999999996,0.04,0.0,0.0,0.0,0.04,0.0,0.0,0.0,0.04
1614558368.0004723,1964,1614558368,5656957,base_imu_link,0.17829540354338824,0.09179446625262125,-0.957580731678981,0.20693880099643971,0.0025,0.0,0.0,0.0,0.0025,0.0,0.0,0.0,0.0025,-0.03,0.01,0.45,0.02,0.0,0.0,0.0,0.02,0.0,0.0,0.0,0.02,-0.0383046875,0.5121336718749999,-1.392375390625,0.04,0.0,0.0,0.0,0.04,0.0,0.0,0.0,0.04
1614558368.0212739,1965,1614558368,26931047,base_imu_link,0.17864155029944545,0.09078564565486516,-0.9567932562226746,0.21069368262112412,0.0025,0.0,0.0,0.0,0.0025,0.0,0.0,0.0,0.0025,-0.0,-0.03,0.48,0.02,0.0,0.0,0.0,0.02,0.0,0.0,0.0,0.02,0.6450509375,0.35010484375,1.6578268749999998,0.04,0.0,0.0,0.0,0.04,0.0,0.0,0.0,0.04
1614558368.041493,1966,1614558368,46703100,base_imu_link,0.1789862983691045,0.08976047319575986,-0.9559207204111937,0.21476158580235874,0.0025,0.0,0.0,0.0,0.0025,0.0,0.0,0.0,0.0025,-0.0,-0.03,0.51,0.02,0.0,0.0,0.0,0.02,0.0,0.0,0.0,0.02,0.34206085937499997,0.2374890625,2.9345221093749996,0.04,0.0,0.0,0.0,0.04,0.0,0.0,0.0,0.04
1614558368.0589118,1967,1614558368,64354896,base_imu_link,0.17978156754042768,0.08837784402042198,-0.9550152059126312,0.21866389993472476,0.0025,0.0,0.0,0.0,0.0025,0.0,0.0,0.0,0.0025,0.03,0.01,0.52,0.02,0.0,0.0,0.0,0.02,0.0,0.0,0.0,0.02,0.17696765625,0.4535275,-1.6229696093749997,0.04,0.0,0.0,0.0,0.04,0.0,0.0,0.0,0.04
1614558368.0800166,1968,1614558368,84280967,base_imu_link,0.1804458354997311,0.08728810410856438,-0.9541144013621626,0.22245403220723634,0.0025,0.0,0.0,0.0,0.0025,0.0,0.0,0.0,0.0025,-0.0,-0.0,0.52,0.02,0.0,0.0,0.0,0.02,0.0,0.0,0.0,0.02,0.8147407031249999,0.46272062499999994,-0.168923671875,0.04,0.0,0.0,0.0,0.04,0.0,0.0,0.0,0.04
1614558368.1014934,1969,1614558368,107029914,base_imu_link,0.18125552562607508,0.08648029570864539,-0.9532478738509472,0.2258009829093065,0.0025,0.0,0.0,0.0,0.0025,0.0,0.0,0.0,0.0025,-0.03,0.03,0.49,0.02,0.0,0.0,0.0,0.02,0.0,0.0,0.0,0.02,0.034857265625,0.291498671875,1.9060412499999997,0.04,0.0,0.0,0.0,0.04,0.0,0.0,0.0,0.04
1614558368.1188247,1970,1614558368,124464988,base_imu_link,0.18179690089282974,0.08544361770536457,-0.9525443306257109,0.22871067577181123,0.0025,0.0,0.0,0.0,0.0025,0.0,0.0,0.0,0.0025,-0.02,-0.01,0.49,0.02,0.0,0.0,0.0,0.02,0.0,0.0,0.0,0.02,0.22752984375,0.5347334375,-1.7646969531249999,0.04,0.0,0.0,0.0,0.04,0.0,0.0,0.0,0.04
1614558368.141729,1971,1614558368,147356986,base_imu_link,0.1821472192611253,0.0846825906745072,-0.9515757551880587,0.23271190663644456,0.0025,0.0,0.0,0.0,0.0025,0.0,0.0,0.0,0.0025,-0.04,-0.02,0.52,0.02,0.0,0.0,0.0,0.02,0.0,0.0,0.0,0.02,0.46616804687499996,0.309501875,1.8351775781249997,0.04,0.0,0.0,0.0,0.04,0.0,0.0,0.0,0.04
1614558368.1626003,1972,1614558368,167304039,base_imu_link,0.18321438478728802,0.0835641156788791,-0.950508837508409,0.2366061655921832,0.0025,0.0,0.0,0.0,0.0025,0.0,0.0,0.0,0.0025,-0.0,0.04,0.54,0.02,0.0,0.0,0.0,0.02,0.0,0.0,0.0,0.02,0.07622632812499999,0.18807601562499998,2.065771796875,0.04,0.0,0.0,0.0,0.04,0.0,0.0,0.0,0.04
1614558368.1825852,1973,1614558368,187134027,base_imu_link,0.1843231848918309,0.08200736642490888,-0.9494958323842421,0.24032773383098777,0.0025,0.0,0.0,0.0,0.0025,0.0,0.0,0.0,0.0025,0.05,0.04,0.54,0.02,0.0,0.0,0.0,0.02,0.0,0.0,0.0,0.02,0.25510921875,0.24668218749999998,-0.3462743749999999,0.04,0.0,0.0,0.0,0.04,0.0,0.0,0.0,0.04
1614558368.2071157,1974,1614558368,204916954,base_imu_link,0.18536461460935005,0.08047655883100713,-0.9485363704849428,0.24380778698945982,0.0025,0.0,0.0,0.0,0.0025,0.0,0.0,0.0,0.0025,0.03,0.03,0.53,0.02,0.0,0.0,0.0,0.02,0.0,0.0,0.0,0.02,0.48915085937499997,0.35470140624999996,-0.417138046875,0.04,0.0,0.0,0.0,0.04,0.0,0.0,0.0,0.04
1614558368.2217727,1975,1614558368,227451086,base_imu_link,0.18633514086446337,0.07925302885634988,-0.9474728139234019,0.24757511904912005,0.0025,0.0,0.0,0.0,0.0025,0.0,0.0,0.0,0.0025,0.01,0.03,0.55,0.02,0.0,0.0,0.0,0.02,0.0,0.0,0.0,0.02,0.071629765625,0.32329156249999996,1.001667578125,0.04,0.0,0.0,0.0,0.04,0.0,0.0,0.0,0.04
1614558368.245074,1976,1614558368,247245073,base_imu_link,0.18751340488566115,0.07798296072558177,-0.946383090571111,0.2512298284554018,0.0025,0.0,0.0,0.0,0.0025,0.0,0.0,0.0,0.0025,0.01,0.05,0.55,0.02,0.0,0.0,0.0,0.02,0.0,0.0,0.0,0.02,-0.11184968749999999,0.36351148437499997,1.8884210937499997,0.04,0.0,0.0,0.0,0.04,0.0,0.0,0.0,0.04
1614558368.2628887,1977,1614558368,267612934,base_imu_link,0.1882404552601038,0.07713475565518892,-0.9453043377330936,0.25498131213185077,0.0025,0.0,0.0,0.0,0.0025,0.0,0.0,0.0,0.0025,-0.03,0.02,0.52,0.02,0.0,0.0,0.0,0.02,0.0,0.0,0.0,0.02,-0.33210164062499997,0.579549921875,-0.328271171875,0.04,0.0,0.0,0.0,0.04,0.0,0.0,0.0,0.04
1614558368.2820244,1978,1614558368,287281036,base_imu_link,0.1884858585243538,0.07618086819279903,-0.9443967534255561,0.25842664061005427,0.0025,0.0,0.0,0.0,0.0025,0.0,0.0,0.0,0.0025,-0.04,-0.03,0.51,0.02,0.0,0.0,0.0,0.02,0.0,0.0,0.0,0.02,-0.18079812499999998,0.5435435156249999,0.38074859375,0.04,0.0,0.0,0.0,0.04,0.0,0.0,0.0,0.04
1614558368.3020666,1979,1614558368,307456970,base_imu_link,0.18852686773053,0.07528458806080777,-0.9432634391923485,0.26276212669875537,0.0025,0.0,0.0,0.0,0.0025,0.0,0.0,0.0,0.0025,-0.04,-0.05,0.54,0.02,0.0,0.0,0.0,0.02,0.0,0.0,0.0,0.02,0.08541945312499999,0.530136875,0.23902125,0.04,0.0,0.0,0.0,0.04,0.0,0.0,0.0,0.04
1614558368.3219578,1980,1614558368,327505111,base_imu_link,0.18875155893959425,0.07472113463438468,-0.9420115920733579,0.26721482263572255,0.0025,0.0,0.0,0.0,0.0025,0.0,0.0,0.0,0.0025,-0.08,-0.02,0.57,0.02,0.0,0.0,0.0,0.02,0.0,0.0,0.0,0.02,-0.16241187499999998,0.25127874999999994,0.84193703125,0.04,0.0,0.0,0.0,0.04,0.0,0.0,0.0,0.04
1614558368.3426993,1981,1614558368,348345994,base_imu_link,0.1896301843017712,0.07348850147908124,-0.9407782223366505,0.2712492759974248,0.0025,0.0,0.0,0.0,0.0025,0.0,0.0,0.0,0.0025,-0.01,0.03,0.58,0.02,0.0,0.0,0.0,0.02,0.0,0.0,0.0,0.02,-0.24476695312499996,-0.07737546875,2.491336875,0.04,0.0,0.0,0.0,0.04,0.0,0.0,0.0,0.04
1614558368.3621972,1982,1614558368,367929935,base_imu_link,0.19039100860744862,0.07180249055519675,-0.9395823034638351,0.27528305652383134,0.0025,0.0,0.0,0.0,0.0025,0.0,0.0,0.0,0.0025,0.05,0.0,0.56,0.02,0.0,0.0,0.0,0.02,0.0,0.0,0.0,0.02,0.18156421875,0.22867898437499998,-0.3462743749999999,0.04,0.0,0.0,0.0,0.04,0.0,0.0,0.0,0.04
1614558368.380049,1983,1614558368,385430097,base_imu_link,0.19070595733228246,0.07080610645414047,-0.9384500649572297,0.2791580353644758,0.0025,0.0,0.0,0.0,0.0025,0.0,0.0,0.0,0.0025,-0.02,-0.01,0.51,0.02,0.0,0.0,0.0,0.02,0.0,0.0,0.0,0.02,0.3236746093749999,0.42671421875,-1.6762131249999999,0.04,0.0,0.0,0.0,0.04,0.0,0.0,0.0,0.04
1614558368.4025314,1984,1614558368,407718896,base_imu_link,0.1910902928808246,0.06991994855548236,-0.9372749390755509,0.2830395543764893,0.0025,0.0,0.0,0.0,0.0025,0.0,0.0,0.0,0.0025,-0.03,-0.0,0.5,0.02,0.0,0.0,0.0,0.02,0.0,0.0,0.0,0.02,-0.11644624999999999,0.318695,1.07253125,0.04,0.0,0.0,0.0,0.04,0.0,0.0,0.0,0.04
1614558368.4230015,1985,1614558368,427838087,base_imu_link,0.19173688932154492,0.06850823273519126,-0.9360803630950119,0.2868747830477771,0.0025,0.0,0.0,0.0,0.0025,0.0,0.0,0.0,0.0025,0.03,-0.01,0.54,0.02,0.0,0.0,0.0,0.02,0.0,0.0,0.0,0.02,0.030260703125,0.291498671875,1.5337196874999999,0.04,0.0,0.0,0.0,0.04,0.0,0.0,0.0,0.04
1614558368.4424505,1986,1614558368,448009014,base_imu_link,0.19226160513919513,0.06668537354976824,-0.9349648499113284,0.2905671446914036,0.0025,0.0,0.0,0.0,0.0025,0.0,0.0,0.0,0.0025,0.04,-0.01,0.56,0.02,0.0,0.0,0.0,0.02,0.0,0.0,0.0,0.02,0.11759539062499999,0.305288359375,1.8884210937499997,0.04,0.0,0.0,0.0,0.04,0.0,0.0,0.0,0.04
1614558368.4752944,1987,1614558368,467926025,base_imu_link,0.19299722973286082,0.06539459018724887,-0.9337050131858348,0.2943986502029574,0.0025,0.0,0.0,0.0,0.0025,0.0,0.0,0.0,0.0025,0.0,0.01,0.55,0.02,0.0,0.0,0.0,0.02,0.0,0.0,0.0,0.02,-0.12563937499999997,0.37730117187499995,-0.31065101562499997,0.04,0.0,0.0,0.0,0.04,0.0,0.0,0.0,0.04
1614558368.4838107,1988,1614558368,488385915,base_imu_link,0.19377338710654865,0.06431443042965458,-0.9324947692260769,0.2979413261932125,0.0025,0.0,0.0,0.0,0.0025,0.0,0.0,0.0,0.0025,-0.01,0.03,0.53,0.02,0.0,0.0,0.0,0.02,0.0,0.0,0.0,0.02,-0.07507718749999999,0.31409843749999994,-1.10853765625,0.04,0.0,0.0,0.0,0.04,0.0,0.0,0.0,0.04
1614558368.5039113,1989,1614558368,508291959,base_imu_link,0.19437984284956694,0.06297035604416318,-0.9312557634273603,0.3016851239898537,0.0025,0.0,0.0,0.0,0.0025,0.0,0.0,0.0,0.0025,0.01,0.01,0.52,0.02,0.0,0.0,0.0,0.02,0.0,0.0,0.0,0.02,0.048646953124999996,0.291498671875,1.55133984375,0.04,0.0,0.0,0.0,0.04,0.0,0.0,0.0,0.04
1614558368.5267012,1990,1614558368,528390884,base_imu_link,0.19518910914647222,0.061331042087714956,-0.9301290326100426,0.304958517905219,0.0025,0.0,0.0,0.0,0.0025,0.0,0.0,0.0,0.0025,0.06,0.01,0.51,0.02,0.0,0.0,0.0,0.02,0.0,0.0,0.0,0.02,-0.10725312499999999,0.41752109374999996,0.9128007031249998,0.04,0.0,0.0,0.0,0.04,0.0,0.0,0.0,0.04
1614558368.5431273,1991,1614558368,548368930,base_imu_link,0.19557245451521504,0.060494228929157616,-0.9287826141945659,0.30895747097467813,0.0025,0.0,0.0,0.0,0.0025,0.0,0.0,0.0,0.0025,-0.04,0.0,0.53,0.02,0.0,0.0,0.0,0.02,0.0,0.0,0.0,0.02,-0.46501890625,0.327505078125,0.6113428125,0.04,0.0,0.0,0.0,0.04,0.0,0.0,0.0,0.04
1614558368.592118,1992,1614558368,568377017,base_imu_link,0.19613775426674113,0.0591641986741675,-0.9273428580153157,0.313153001956598,0.0025,0.0,0.0,0.0,0.0025,0.0,0.0,0.0,0.0025,-0.0,0.01,0.57,0.02,0.0,0.0,0.0,0.02,0.0,0.0,0.0,0.02,-0.341294765625,0.12946984374999998,0.9660442187499999,0.04,0.0,0.0,0.0,0.04,0.0,0.0,0.0,0.04
1614558368.596099,1993,1614558368,587846040,base_imu_link,0.1966519601097475,0.05750843050072136,-0.9259823293712945,0.31713957920519714,0.0025,0.0,0.0,0.0,0.0025,0.0,0.0,0.0,0.0025,0.03,-0.01,0.59,0.02,0.0,0.0,0.0,0.02,0.0,0.0,0.0,0.02,-0.0566909375,0.20148265624999998,0.292264765625,0.04,0.0,0.0,0.0,0.04,0.0,0.0,0.0,0.04
1614558368.6029708,1994,1614558368,607964038,base_imu_link,0.1971477287979267,0.05597371025461108,-0.9245366637278825,0.3212968630613569,0.0025,0.0,0.0,0.0,0.0025,0.0,0.0,0.0,0.0025,0.03,-0.01,0.57,0.02,0.0,0.0,0.0,0.02,0.0,0.0,0.0,0.02,0.19535390624999996,0.34550828124999994,0.04405039062499999,0.04,0.0,0.0,0.0,0.04,0.0,0.0,0.0,0.04
1614558368.6237795,1995,1614558368,628156900,base_imu_link,0.19768621187459456,0.05463505861443843,-0.9230398207299544,0.3254729809856473,0.0025,0.0,0.0,0.0,0.0025,0.0,0.0,0.0,0.0025,0.0,0.0,0.55,0.02,0.0,0.0,0.0,0.02,0.0,0.0,0.0,0.02,-0.23097726562499998,0.4133075781249999,0.04405039062499999,0.04,0.0,0.0,0.0,0.04,0.0,0.0,0.0,0.04
1614558368.6785085,1996,1614558368,648418903,base_imu_link,0.19808160324479104,0.05324427206583257,-0.9215510098345234,0.3296550655171598,0.0025,0.0,0.0,0.0,0.0025,0.0,0.0,0.0,0.0025,0.02,-0.0,0.56,0.02,0.0,0.0,0.0,0.02,0.0,0.0,0.0,0.02,-0.36389453125,0.3995178906249999,0.4163719531249999,0.04,0.0,0.0,0.0,0.04,0.0,0.0,0.0,0.04
1614558368.685066,1997,1614558368,668828964,base_imu_link,0.1981928028738247,0.051670015687269005,-0.9202182267757048,0.33353895946001894,0.0025,0.0,0.0,0.0,0.0025,0.0,0.0,0.0,0.0025,0.02,-0.04,0.53,0.02,0.0,0.0,0.0,0.02,0.0,0.0,0.0,0.02,0.149771328125,0.43131078124999994,0.6822064843749999,0.04,0.0,0.0,0.0,0.04,0.0,0.0,0.0,0.04
1614558368.685133,1998,1614558368,689064025,base_imu_link,0.19825039688556947,0.050545627121202,-0.9187948802863503,0.33757649158854325,0.0025,0.0,0.0,0.0,0.0025,0.0,0.0,0.0,0.0025,-0.01,-0.03,0.52,0.02,0.0,0.0,0.0,0.02,0.0,0.0,0.0,0.02,0.08082289062499999,0.449313984375,0.327888125,0.04,0.0,0.0,0.0,0.04,0.0,0.0,0.0,0.04
1614558368.706983,1999,1614558368,708214044,base_imu_link,0.19875650733113046,0.04924208915525634,-0.9172731897007557,0.34158595244148676,0.0025,0.0,0.0,0.0,0.0025,0.0,0.0,0.0,0.0025,0.02,0.0,0.51,0.02,0.0,0.0,0.0,0.02,0.0,0.0,0.0,0.02,-0.04290125,0.27349546874999997,0.04405039062499999,0.04,0.0,0.0,0.0,0.04,0.0,0.0,0.0,0.04
1614558368.7244473,2000,1614558368,728820085,base_imu_link,0.1991832760572519,0.04766330127337022,-0.9160052747951786,0.3449471971160715,0.0025,0.0,0.0,0.0,0.0025,0.0,0.0,0.0,0.0025,0.05,-0.01,0.48,0.02,0.0,0.0,0.0,0.02,0.0,0.0,0.0,0.02,0.36044710937499996,0.255492265625,-0.43475820312499996,0.04,0.0,0.0,0.0,0.04,0.0,0.0,0.0,0.04
1614558368.7440324,2001,1614558368,748615980,base_imu_link,0.19954897990082077,0.046536347391821865,-0.9146527004472822,0.3484609168277896,0.0025,0.0,0.0,0.0,0.0025,0.0,0.0,0.0,0.0025,0.01,-0.0,0.45,0.02,0.0,0.0,0.0,0.02,0.0,0.0,0.0,0.02,-0.061287499999999995,0.27349546874999997,1.4272326562499997,0.04,0.0,0.0,0.0,0.04,0.0,0.0,0.0,0.04
1614558368.7645383,2002,1614558368,768790006,base_imu_link,0.20003504121103777,0.04510416804690637,-0.9134171678841831,0.35159731757641816,0.0025,0.0,0.0,0.0,0.0025,0.0,0.0,0.0,0.0025,0.03,-0.0,0.47,0.02,0.0,0.0,0.0,0.02,0.0,0.0,0.0,0.02,-0.17620156249999996,0.48532039062499993,0.38074859375,0.04,0.0,0.0,0.0,0.04,0.0,0.0,0.0,0.04
1614558368.811582,2003,1614558368,789345026,base_imu_link,0.20026020478971596,0.043955674422435295,-0.9119990485748534,0.3552766308979696,0.0025,0.0,0.0,0.0,0.0025,0.0,0.0,0.0,0.0025,-0.01,-0.02,0.5,0.02,0.0,0.0,0.0,0.02,0.0,0.0,0.0,0.02,-0.1394290625,0.5121336718749999,-1.0200538281249998,0.04,0.0,0.0,0.0,0.04,0.0,0.0,0.0,0.04
1614558368.8156595,2004,1614558368,809727907,base_imu_link,0.20040106142021108,0.043065531773987926,-0.9105190492576452,0.3590819342345567,0.0025,0.0,0.0,0.0,0.0025,0.0,0.0,0.0,0.0025,-0.03,-0.01,0.51,0.02,0.0,0.0,0.0,0.02,0.0,0.0,0.0,0.02,0.18156421875,0.3995178906249999,1.6578268749999998,0.04,0.0,0.0,0.0,0.04,0.0,0.0,0.0,0.04
1614558368.8245103,2005,1614558368,829392910,base_imu_link,0.20064047006826305,0.04243668150520717,-0.9089187386904555,0.3630554452021942,0.0025,0.0,0.0,0.0,0.0025,0.0,0.0,0.0,0.0025,-0.05,0.0,0.49,0.02,0.0,0.0,0.0,0.02,0.0,0.0,0.0,0.02,-0.144025625,0.28728515624999995,1.143394921875,0.04,0.0,0.0,0.0,0.04,0.0,0.0,0.0,0.04
1614558368.844634,2006,1614558368,849706888,base_imu_link,0.20098926606688536,0.041293972447952076,-0.9074915970987991,0.36654757393881837,0.0025,0.0,0.0,0.0,0.0025,0.0,0.0,0.0,0.0025,0.0,0.0,0.49,0.02,0.0,0.0,0.0,0.02,0.0,0.0,0.0,0.02,-0.221784140625,0.4133075781249999,-0.8427031249999999,0.04,0.0,0.0,0.0,0.04,0.0,0.0,0.0,0.04
1614558368.8652296,2007,1614558368,869111061,base_imu_link,0.20118671255114146,0.040122520767213926,-0.9060117968865679,0.3702117149990277,0.0025,0.0,0.0,0.0,0.0025,0.0,0.0,0.0,0.0025,-0.01,-0.01,0.5,0.02,0.0,0.0,0.0,0.02,0.0,0.0,0.0,0.02,-0.07507718749999999,0.35929796875,0.34550828124999994,0.04,0.0,0.0,0.0,0.04,0.0,0.0,0.0,0.04
1614558368.8863108,2008,1614558368,889406919,base_imu_link,0.20135426018020083,0.03891943916187008,-0.9042400466670943,0.37455530588432573,0.0025,0.0,0.0,0.0,0.0025,0.0,0.0,0.0,0.0025,0.0,-0.02,0.53,0.02,0.0,0.0,0.0,0.02,0.0,0.0,0.0,0.02,0.094612578125,0.17926593749999997,2.154255625,0.04,0.0,0.0,0.0,0.04,0.0,0.0,0.0,0.04
1614558368.9090793,2009,1614558368,909122943,base_imu_link,0.20190436711872972,0.03767236837635179,-0.9025854084482461,0.37835829534399623,0.0025,0.0,0.0,0.0,0.0025,0.0,0.0,0.0,0.0025,0.01,0.02,0.54,0.02,0.0,0.0,0.0,0.02,0.0,0.0,0.0,0.02,0.034857265625,0.33669820312499993,0.04405039062499999,0.04,0.0,0.0,0.0,0.04,0.0,0.0,0.0,0.04
1614558368.9246829,2010,1614558368,929974079,base_imu_link,0.20239656607569728,0.03662360669947047,-0.9008365582231583,0.3823451802255947,0.0025,0.0,0.0,0.0,0.0025,0.0,0.0,0.0,0.0025,0.0,0.02,0.51,0.02,0.0,0.0,0.0,0.02,0.0,0.0,0.0,0.02,0.17237109374999998,0.34550828124999994,-1.1797843749999999,0.04,0.0,0.0,0.0,0.04,0.0,0.0,0.0,0.04
1614558368.9457932,2011,1614558368,949702978,base_imu_link,0.20267589412620557,0.03543894268498579,-0.8991757127046142,0.3861989137266736,0.0025,0.0,0.0,0.0,0.0025,0.0,0.0,0.0,0.0025,0.01,-0.01,0.49,0.02,0.0,0.0,0.0,0.02,0.0,0.0,0.0,0.02,0.31486453125,0.35470140624999996,0.664586328125,0.04,0.0,0.0,0.0,0.04,0.0,0.0,0.0,0.04
1614558368.9647362,2012,1614558368,969953060,base_imu_link,0.20298561422415723,0.03441420784505963,-0.8975413589119795,0.38991282584556763,0.0025,0.0,0.0,0.0,0.0025,0.0,0.0,0.0,0.0025,-0.0,-0.0,0.47,0.02,0.0,0.0,0.0,0.02,0.0,0.0,0.0,0.02,-0.029111562499999997,0.49413046875,0.7354499999999999,0.04,0.0,0.0,0.0,0.04,0.0,0.0,0.0,0.04
1614558368.9861941,2013,1614558368,990936040,base_imu_link,0.20290415020072744,0.03367536945843127,-0.8959145673850325,0.39374225487042774,0.0025,0.0,0.0,0.0,0.0025,0.0,0.0,0.0,0.0025,-0.04,-0.02,0.47,0.02,0.0,0.0,0.0,0.02,0.0,0.0,0.0,0.02,-0.04749781249999999,0.36351148437499997,-0.647732265625,0.04,0.0,0.0,0.0,0.04,0.0,0.0,0.0,0.04
1614558369.0051076,2014,1614558369,10509014,base_imu_link,0.20319015846660843,0.03257625984247975,-0.8941884562552099,0.39759219244964344,0.0025,0.0,0.0,0.0,0.0025,0.0,0.0,0.0,0.0025,0.01,-0.0,0.49,0.02,0.0,0.0,0.0,0.02,0.0,0.0,0.0,0.02,0.21374015624999998,0.20148265624999998,1.3916092968749998,0.04,0.0,0.0,0.0,0.04,0.0,0.0,0.0,0.04
1614558369.0254908,2015,1614558369,29963016,base_imu_link,0.20327644402606637,0.03164402479133358,-0.8921498705764861,0.4021765177499579,0.0025,0.0,0.0,0.0,0.0025,0.0,0.0,0.0,0.0025,-0.0,-0.01,0.49,0.02,0.0,0.0,0.0,0.02,0.0,0.0,0.0,0.02,-0.0566909375,0.27349546874999997,1.8351775781249997,0.04,0.0,0.0,0.0,0.04,0.0,0.0,0.0,0.04
1614558369.0457177,2016,1614558369,51364898,base_imu_link,0.20334511957009704,0.03062020042758408,-0.8905738786661221,0.4056985732170828,0.0025,0.0,0.0,0.0,0.0025,0.0,0.0,0.0,0.0025,-0.02,-0.02,0.48,0.02,0.0,0.0,0.0,0.02,0.0,0.0,0.0,0.02,-0.1394290625,0.3907078124999999,-0.6121089062499999,0.04,0.0,0.0,0.0,0.04,0.0,0.0,0.0,0.04
1614558369.066465,2017,1614558369,71484088,base_imu_link,0.2034947141222562,0.029688021716690403,-0.8888594225204055,0.4094355256783925,0.0025,0.0,0.0,0.0,0.0025,0.0,0.0,0.0,0.0025,-0.01,-0.01,0.48,0.02,0.0,0.0,0.0,0.02,0.0,0.0,0.0,0.02,0.24131953124999997,0.341294765625,-1.3747552343749998,0.04,0.0,0.0,0.0,0.04,0.0,0.0,0.0,0.04
1614558369.0847359,2018,1614558369,90053081,base_imu_link,0.20350032668086693,0.028927558946145432,-0.8870251375272122,0.4134455451072463,0.0025,0.0,0.0,0.0,0.0025,0.0,0.0,0.0,0.0025,-0.03,-0.01,0.46,0.02,0.0,0.0,0.0,0.02,0.0,0.0,0.0,0.02,-0.0019152343749999998,0.327505078125,1.7819340625,0.04,0.0,0.0,0.0,0.04,0.0,0.0,0.0,0.04
1614558369.1075435,2019,1614558369,110182046,base_imu_link,0.20367647798013877,0.02798032393464256,-0.8853068561129166,0.4170908346027066,0.0025,0.0,0.0,0.0,0.0025,0.0,0.0,0.0,0.0025,-0.02,-0.0,0.49,0.02,0.0,0.0,0.0,0.02,0.0,0.0,0.0,0.02,-0.221784140625,0.37730117187499995,1.05491109375,0.04,0.0,0.0,0.0,0.04,0.0,0.0,0.0,0.04
1614558369.125119,2020,1614558369,129736900,base_imu_link,0.20426708533167837,0.026836971649071284,-0.8833963622651871,0.42091044408453676,0.0025,0.0,0.0,0.0,0.0025,0.0,0.0,0.0,0.0025,0.02,0.04,0.51,0.02,0.0,0.0,0.0,0.02,0.0,0.0,0.0,0.02,-0.13023593749999998,0.327505078125,0.20339789062499997,0.04,0.0,0.0,0.0,0.04,0.0,0.0,0.0,0.04
1614558369.1448083,2021,1614558369,150381088,base_imu_link,0.20463758567233165,0.025846559586653592,-0.8813367138670325,0.4250894149209001,0.0025,0.0,0.0,0.0,0.0025,0.0,0.0,0.0,0.0025,0.01,0.01,0.5,0.02,0.0,0.0,0.0,0.02,0.0,0.0,0.0,0.02,0.25970578125,0.449313984375,0.1149140625,0.04,0.0,0.0,0.0,0.04,0.0,0.0,0.0,0.04
1614558369.165315,2022,1614558369,170502901,base_imu_link,0.20476885401555245,0.02513288193132269,-0.8794038442252802,0.4290535321294801,0.0025,0.0,0.0,0.0,0.0025,0.0,0.0,0.0,0.0025,-0.04,0.01,0.49,0.02,0.0,0.0,0.0,0.02,0.0,0.0,0.0,0.02,-0.011108359374999998,0.34550828124999994,0.1149140625,0.04,0.0,0.0,0.0,0.04,0.0,0.0,0.0,0.04
1614558369.1851563,2023,1614558369,190223932,base_imu_link,0.20501850984711317,0.02405159467269012,-0.8773591451489338,0.4331626274706788,0.0025,0.0,0.0,0.0,0.0025,0.0,0.0,0.0,0.0025,0.0,0.01,0.51,0.02,0.0,0.0,0.0,0.02,0.0,0.0,0.0,0.02,-0.171605,0.10265656249999999,0.34550828124999994,0.04,0.0,0.0,0.0,0.04,0.0,0.0,0.0,0.04
1614558369.2056372,2024,1614558369,210777997,base_imu_link,0.20531309778494683,0.022793070508377228,-0.8751171033580164,0.437603774235351,0.0025,0.0,0.0,0.0,0.0025,0.0,0.0,0.0,0.0025,0.03,-0.01,0.51,0.02,0.0,0.0,0.0,0.02,0.0,0.0,0.0,0.02,0.21374015624999998,0.27349546874999997,0.6293460156249999,0.04,0.0,0.0,0.0,0.04,0.0,0.0,0.0,0.04
1614558369.2269778,2025,1614558369,230745077,base_imu_link,0.2057013505404317,0.021929453938001844,-0.8728802766326107,0.44191184200199984,0.0025,0.0,0.0,0.0,0.0025,0.0,0.0,0.0,0.0025,-0.01,0.02,0.51,0.02,0.0,0.0,0.0,0.02,0.0,0.0,0.0,0.02,0.103805703125,0.269281953125,1.2855053125,0.04,0.0,0.0,0.0,0.04,0.0,0.0,0.0,0.04
1614558369.2459223,2026,1614558369,250801086,base_imu_link,0.20621766291279187,0.0210356693638393,-0.8706081489136883,0.44617622881803387,0.0025,0.0,0.0,0.0,0.0025,0.0,0.0,0.0,0.0025,0.01,0.04,0.49,0.02,0.0,0.0,0.0,0.02,0.0,0.0,0.0,0.02,-0.061287499999999995,0.3907078124999999,-0.36389453125,0.04,0.0,0.0,0.0,0.04,0.0,0.0,0.0,0.04
1614558369.2664683,2027,1614558369,270977973,base_imu_link,0.2064253539915593,0.019912532040865627,-0.8686687586440904,0.44989626810289934,0.0025,0.0,0.0,0.0,0.0025,0.0,0.0,0.0,0.0025,0.0,-0.0,0.48,0.02,0.0,0.0,0.0,0.02,0.0,0.0,0.0,0.02,-0.006511796875,0.37730117187499995,-0.647732265625,0.04,0.0,0.0,0.0,0.04,0.0,0.0,0.0,0.04
1614558369.285885,2028,1614558369,291589021,base_imu_link,0.2066704836422693,0.019035279693102883,-0.866418243075183,0.4541413847961768,0.0025,0.0,0.0,0.0,0.0025,0.0,0.0,0.0,0.0025,-0.0,0.0,0.49,0.02,0.0,0.0,0.0,0.02,0.0,0.0,0.0,0.02,0.094612578125,0.111466640625,1.4448528124999998,0.04,0.0,0.0,0.0,0.04,0.0,0.0,0.0,0.04
1614558369.3055155,2029,1614558369,310869932,base_imu_link,0.20698219405481902,0.017819832792196885,-0.8643180469126575,0.4580339929356781,0.0025,0.0,0.0,0.0,0.0025,0.0,0.0,0.0,0.0025,0.02,0.01,0.49,0.02,0.0,0.0,0.0,0.02,0.0,0.0,0.0,0.02,-0.1670084375,0.05745703125,1.462856015625,0.04,0.0,0.0,0.0,0.04,0.0,0.0,0.0,0.04
1614558369.3266008,2030,1614558369,331439018,base_imu_link,0.2074742003099752,0.01627028714140076,-0.8622808138425906,0.46169419753883867,0.0025,0.0,0.0,0.0,0.0025,0.0,0.0,0.0,0.0025,0.07,0.0,0.48,0.02,0.0,0.0,0.0,0.02,0.0,0.0,0.0,0.02,-0.0199184375,0.43131078124999994,-0.8603232812499999,0.04,0.0,0.0,0.0,0.04,0.0,0.0,0.0,0.04
1614558369.3465025,2031,1614558369,350878953,base_imu_link,0.2076445125015527,0.014784575010401618,-0.8603294132077827,0.46529396464956085,0.0025,0.0,0.0,0.0,0.0025,0.0,0.0,0.0,0.0025,0.05,-0.02,0.47,0.02,0.0,0.0,0.0,0.02,0.0,0.0,0.0,0.02,-0.04749781249999999,0.6561592968749999,0.27464460937499996,0.04,0.0,0.0,0.0,0.04,0.0,0.0,0.0,0.04
1614558369.3670592,2032,1614558369,371376991,base_imu_link,0.20744090334280738,0.013644380958513017,-0.8584100848678994,0.468950134540619,0.0025,0.0,0.0,0.0,0.0025,0.0,0.0,0.0,0.0025,-0.01,-0.04,0.48,0.02,0.0,0.0,0.0,0.02,0.0,0.0,0.0,0.02,-0.13023593749999998,0.5887430468749999,1.05491109375,0.04,0.0,0.0,0.0,0.04,0.0,0.0,0.0,0.04
1614558369.3873515,2033,1614558369,391709089,base_imu_link,0.20732235781106984,0.012582269751600872,-0.8563770205188017,0.4727340956255393,0.0025,0.0,0.0,0.0,0.0025,0.0,0.0,0.0,0.0025,-0.02,-0.03,0.49,0.02,0.0,0.0,0.0,0.02,0.0,0.0,0.0,0.02,-0.015704921874999996,0.42211765625,0.46961546874999993,0.04,0.0,0.0,0.0,0.04,0.0,0.0,0.0,0.04
1614558369.4108958,2034,1614558369,412509918,base_imu_link,0.20728881860289056,0.011599373992215084,-0.8542289320486345,0.47664424034730135,0.0025,0.0,0.0,0.0,0.0025,0.0,0.0,0.0,0.0025,-0.01,-0.02,0.48,0.02,0.0,0.0,0.0,0.02,0.0,0.0,0.0,0.02,0.18156421875,0.327505078125,1.249881953125,0.04,0.0,0.0,0.0,0.04,0.0,0.0,0.0,0.04
1614558369.4264202,2035,1614558369,431706905,base_imu_link,0.2072918141284067,0.010874165503272276,-0.8521616986187791,0.4803460166662347,0.0025,0.0,0.0,0.0,0.0025,0.0,0.0,0.0,0.0025,-0.03,0.01,0.47,0.02,0.0,0.0,0.0,0.02,0.0,0.0,0.0,0.02,-0.033708125,0.300691796875,0.522858984375,0.04,0.0,0.0,0.0,0.04,0.0,0.0,0.0,0.04
1614558369.4476433,2036,1614558369,452303886,base_imu_link,0.20727604255473844,0.010011722310337368,-0.8501273979417244,0.4839626172216815,0.0025,0.0,0.0,0.0,0.0025,0.0,0.0,0.0,0.0025,-0.02,-0.01,0.47,0.02,0.0,0.0,0.0,0.02,0.0,0.0,0.0,0.02,0.048646953124999996,0.255492265625,-0.913566796875,0.04,0.0,0.0,0.0,0.04,0.0,0.0,0.0,0.04
1614558369.4659557,2037,1614558369,471595048,base_imu_link,0.20729505447351762,0.008816675861913245,-0.8479674754646367,0.48775217802865667,0.0025,0.0,0.0,0.0,0.0025,0.0,0.0,0.0,0.0025,0.01,-0.02,0.48,0.02,0.0,0.0,0.0,0.02,0.0,0.0,0.0,0.02,0.22752984375,0.291498671875,0.7178298437499999,0.04,0.0,0.0,0.0,0.04,0.0,0.0,0.0,0.04
1614558369.4890344,2038,1614558369,492219924,base_imu_link,0.2074268852852418,0.007895404932161607,-0.8455085222783892,0.49196248698090284,0.0025,0.0,0.0,0.0,0.0025,0.0,0.0,0.0,0.0025,-0.01,0.01,0.51,0.02,0.0,0.0,0.0,0.02,0.0,0.0,0.0,0.02,0.07622632812499999,0.24668218749999998,1.4448528124999998,0.04,0.0,0.0,0.0,0.04,0.0,0.0,0.0,0.04
1614558369.5072567,2039,1614558369,512162923,base_imu_link,0.20799095850539434,0.006939227574273843,-0.8429904905606653,0.49604298314255846,0.0025,0.0,0.0,0.0,0.0025,0.0,0.0,0.0,0.0025,0.01,0.05,0.51,0.02,0.0,0.0,0.0,0.02,0.0,0.0,0.0,0.02,0.08541945312499999,0.305288359375,-0.6121089062499999,0.04,0.0,0.0,0.0,0.04,0.0,0.0,0.0,0.04
1614558369.5274239,2040,1614558369,532804012,base_imu_link,0.20861223315840727,0.005970246700096715,-0.840317387928224,0.5003118826057293,0.0025,0.0,0.0,0.0,0.0025,0.0,0.0,0.0,0.0025,0.03,0.04,0.49,0.02,0.0,0.0,0.0,0.02,0.0,0.0,0.0,0.02,0.29647828125,0.42211765625,0.22140109375,0.04,0.0,0.0,0.0,0.04,0.0,0.0,0.0,0.04
1614558369.5484388,2041,1614558369,552202939,base_imu_link,0.20881986013306061,0.005068765395254568,-0.8380361027568698,0.5040476803909072,0.0025,0.0,0.0,0.0,0.0025,0.0,0.0,0.0,0.0025,-0.0,0.02,0.48,0.02,0.0,0.0,0.0,0.02,0.0,0.0,0.0,0.02,0.016471015624999998,0.33210164062499997,1.1081546093749999,0.04,0.0,0.0,0.0,0.04,0.0,0.0,0.0,0.04
1614558369.5673294,2042,1614558369,572468996,base_imu_link,0.2091286251883195,0.004041522056831254,-0.8356901261560826,0.507809902691488,0.0025,0.0,0.0,0.0,0.0025,0.0,0.0,0.0,0.0025,0.01,0.01,0.48,0.02,0.0,0.0,0.0,0.02,0.0,0.0,0.0,0.02,-0.015704921874999996,0.296095234375,-0.25740749999999996,0.04,0.0,0.0,0.0,0.04,0.0,0.0,0.0,0.04
1614558369.586925,2043,1614558369,592135906,base_imu_link,0.209425542231127,0.002896788050204241,-0.8333301956174286,0.5115597090784307,0.0025,0.0,0.0,0.0,0.0025,0.0,0.0,0.0,0.0025,0.02,0.01,0.49,0.02,0.0,0.0,0.0,0.02,0.0,0.0,0.0,0.02,0.22752984375,0.35470140624999996,0.00842703125,0.04,0.0,0.0,0.0,0.04,0.0,0.0,0.0,0.04
1614558369.6077015,2044,1614558369,612426042,base_imu_link,0.20939749689667841,0.0021418496931552844,-0.8309541885318161,0.5154252975308145,0.0025,0.0,0.0,0.0,0.0025,0.0,0.0,0.0,0.0025,-0.03,-0.0,0.48,0.02,0.0,0.0,0.0,0.02,0.0,0.0,0.0,0.02,-0.0199184375,0.34550828124999994,1.6930671875,0.04,0.0,0.0,0.0,0.04,0.0,0.0,0.0,0.04
1614558369.6273673,2045,1614558369,632452964,base_imu_link,0.20938104277064232,0.001441309907063107,-0.8284201311836524,0.5194974377258181,0.0025,0.0,0.0,0.0,0.0025,0.0,0.0,0.0,0.0025,-0.02,0.0,0.47,0.02,0.0,0.0,0.0,0.02,0.0,0.0,0.0,0.02,-0.23097726562499998,0.372704609375,0.39875179687499995,0.04,0.0,0.0,0.0,0.04,0.0,0.0,0.0,0.04
1614558369.6468048,2046,1614558369,652451992,base_imu_link,0.2094897873679316,0.0002938017884713817,-0.8261433019466806,0.5230690081793066,0.0025,0.0,0.0,0.0,0.0025,0.0,0.0,0.0,0.0025,0.02,-0.0,0.47,0.02,0.0,0.0,0.0,0.02,0.0,0.0,0.0,0.02,0.07622632812499999,0.4581240625,-0.04481648437499999,0.04,0.0,0.0,0.0,0.04,0.0,0.0,0.0,0.04
1614558369.6678815,2047,1614558369,672969102,base_imu_link,0.2091514805075887,-0.0004841610546894859,-0.8239514283236177,0.5266492832550207,0.0025,0.0,0.0,0.0,0.0025,0.0,0.0,0.0,0.0025,-0.05,-0.02,0.46,0.02,0.0,0.0,0.0,0.02,0.0,0.0,0.0,0.02,0.103805703125,0.5347334375,0.8595571875,0.04,0.0,0.0,0.0,0.04,0.0,0.0,0.0,0.04
1614558369.6878924,2048,1614558369,692646026,base_imu_link,0.20903391671547955,-0.0009167846506467903,-0.8212104819430494,0.5309588736572304,0.0025,0.0,0.0,0.0,0.0025,0.0,0.0,0.0,0.0025,-0.06,0.01,0.5,0.02,0.0,0.0,0.0,0.02,0.0,0.0,0.0,0.02,-0.11644624999999999,0.23327554687499996,1.036907890625,0.04,0.0,0.0,0.0,0.04,0.0,0.0,0.0,0.04
1614558369.7070453,2049,1614558369,712337970,base_imu_link,0.20932247763657316,-0.0018741079704869823,-0.818622998775348,0.5348242458522778,0.0025,0.0,0.0,0.0,0.0025,0.0,0.0,0.0,0.0025,0.0,0.03,0.52,0.02,0.0,0.0,0.0,0.02,0.0,0.0,0.0,0.02,-0.07048062499999999,0.22408242187499997,0.13253421875,0.04,0.0,0.0,0.0,0.04,0.0,0.0,0.0,0.04
1614558369.7277923,2050,1614558369,732625007,base_imu_link,0.20953429727202477,-0.003000090469735886,-0.8160243522772762,0.5386934510594534,0.0025,0.0,0.0,0.0,0.0025,0.0,0.0,0.0,0.0025,0.01,0.01,0.51,0.02,0.0,0.0,0.0,0.02,0.0,0.0,0.0,0.02,0.23212640624999997,0.36351148437499997,0.5761025,0.04,0.0,0.0,0.0,0.04,0.0,0.0,0.0,0.04
1614558369.7476718,2051,1614558369,752923011,base_imu_link,0.20952386760641756,-0.0038607397566386287,-0.8136396714990671,0.5422871274100743,0.0025,0.0,0.0,0.0,0.0025,0.0,0.0,0.0,0.0025,-0.02,0.0,0.49,0.02,0.0,0.0,0.0,0.02,0.0,0.0,0.0,0.02,-0.029111562499999997,0.449313984375,0.25664140625,0.04,0.0,0.0,0.0,0.04,0.0,0.0,0.0,0.04
1614558369.765955,2052,1614558369,770390987,base_imu_link,0.20943713335497022,-0.004839072712307685,-0.811102817996442,0.5460997062676084,0.0025,0.0,0.0,0.0,0.0025,0.0,0.0,0.0,0.0025,-0.01,-0.01,0.48,0.02,0.0,0.0,0.0,0.02,0.0,0.0,0.0,0.02,0.048646953124999996,0.3907078124999999,-0.7185959375,0.04,0.0,0.0,0.0,0.04,0.0,0.0,0.0,0.04
1614558369.7878978,2053,1614558369,792880058,base_imu_link,0.20948091152700965,-0.005838017279355012,-0.8085366747698213,0.5498655388476525,0.0025,0.0,0.0,0.0,0.0025,0.0,0.0,0.0,0.0025,0.0,-0.01,0.49,0.02,0.0,0.0,0.0,0.02,0.0,0.0,0.0,0.02,0.22293328125,0.21527234374999998,2.01252828125,0.04,0.0,0.0,0.0,0.04,0.0,0.0,0.0,0.04
1614558369.8081663,2054,1614558369,813469886,base_imu_link,0.20984173917609683,-0.006768370013739117,-0.805785759488228,0.5537417660542573,0.0025,0.0,0.0,0.0,0.0025,0.0,0.0,0.0,0.0025,0.0,0.04,0.51,0.02,0.0,0.0,0.0,0.02,0.0,0.0,0.0,0.02,-0.11184968749999999,0.260088828125,1.3916092968749998,0.04,0.0,0.0,0.0,0.04,0.0,0.0,0.0,0.04
1614558369.829296,2055,1614558369,833344936,base_imu_link,0.21001298151709713,-0.007868950750097053,-0.8030747174222364,0.5575873253989792,0.0025,0.0,0.0,0.0,0.0025,0.0,0.0,0.0,0.0025,0.01,0.01,0.5,0.02,0.0,0.0,0.0,0.02,0.0,0.0,0.0,0.02,0.29188171874999996,0.35010484375,-1.0556771875,0.04,0.0,0.0,0.0,0.04,0.0,0.0,0.0,0.04
1614558369.8467453,2056,1614558369,850845098,base_imu_link,0.21027373483159847,-0.008498719681967332,-0.8003722619355924,0.5613528039725477,0.0025,0.0,0.0,0.0,0.0025,0.0,0.0,0.0,0.0025,-0.01,0.03,0.47,0.02,0.0,0.0,0.0,0.02,0.0,0.0,0.0,0.02,0.46616804687499996,0.3907078124999999,0.00842703125,0.04,0.0,0.0,0.0,0.04,0.0,0.0,0.0,0.04
1614558369.8696299,2057,1614558369,873226881,base_imu_link,0.21064178175449022,-0.00899512689331293,-0.7980800266445874,0.5644620434913596,0.0025,0.0,0.0,0.0,0.0025,0.0,0.0,0.0,0.0025,-0.03,0.06,0.45,0.02,0.0,0.0,0.0,0.02,0.0,0.0,0.0,0.02,-0.295329140625,0.13406640625,0.487235625,0.04,0.0,0.0,0.0,0.04,0.0,0.0,0.0,0.04
1614558369.8877704,2058,1614558369,893075942,base_imu_link,0.21109557877693538,-0.010185441129080944,-0.7957848140248411,0.5675045754681505,0.0025,0.0,0.0,0.0,0.0025,0.0,0.0,0.0,0.0025,0.05,0.02,0.46,0.02,0.0,0.0,0.0,0.02,0.0,0.0,0.0,0.02,-0.033708125,0.11606320312499999,-0.22216718749999997,0.04,0.0,0.0,0.0,0.04,0.0,0.0,0.0,0.04
1614558369.9081712,2059,1614558369,913314104,base_imu_link,0.21136783849534996,-0.011420429105568411,-0.7931859299959875,0.571007260116059,0.0025,0.0,0.0,0.0,0.0025,0.0,0.0,0.0,0.0025,0.03,0.01,0.47,0.02,0.0,0.0,0.0,0.02,0.0,0.0,0.0,0.02,-0.011108359374999998,0.23327554687499996,1.994525078125,0.04,0.0,0.0,0.0,0.04,0.0,0.0,0.0,0.04
1614558369.9294019,2060,1614558369,934233903,base_imu_link,0.21183624935419915,-0.012216761889910999,-0.7906493924610895,0.5743254237706884,0.0025,0.0,0.0,0.0,0.0025,0.0,0.0,0.0,0.0025,0.01,0.05,0.47,0.02,0.0,0.0,0.0,0.02,0.0,0.0,0.0,0.02,-0.38687734374999994,0.13866296875,0.93080390625,0.04,0.0,0.0,0.0,0.04,0.0,0.0,0.0,0.04
1614558369.9486585,2061,1614558369,953907966,base_imu_link,0.21228411673326653,-0.013726790508030162,-0.7882069480058598,0.577474532876051,0.0025,0.0,0.0,0.0,0.0025,0.0,0.0,0.0,0.0025,0.06,0.01,0.48,0.02,0.0,0.0,0.0,0.02,0.0,0.0,0.0,0.02,-0.26774976562499997,0.4133075781249999,-0.9311869531249999,0.04,0.0,0.0,0.0,0.04,0.0,0.0,0.0,0.04
1614558369.9695404,2062,1614558369,974143981,base_imu_link,0.21220455509007805,-0.014785252172326346,-0.7854084675544678,0.5812780420856832,0.0025,0.0,0.0,0.0,0.0025,0.0,0.0,0.0,0.0025,0.02,-0.02,0.47,0.02,0.0,0.0,0.0,0.02,0.0,0.0,0.0,0.02,0.20454703124999998,0.696762265625,0.433992109375,0.04,0.0,0.0,0.0,0.04,0.0,0.0,0.0,0.04
1614558369.9887016,2063,1614558369,993737936,base_imu_link,0.21207581284212612,-0.015433271205246943,-0.7828382689990194,0.5847648316527556,0.0025,0.0,0.0,0.0,0.0025,0.0,0.0,0.0,0.0025,-0.05,0.01,0.47,0.02,0.0,0.0,0.0,0.02,0.0,0.0,0.0,0.02,-0.24476695312499996,0.31409843749999994,1.9592847656249999,0.04,0.0,0.0,0.0,0.04,0.0,0.0,0.0,0.04
1614558370.0083542,2064,1614558370,13936042,base_imu_link,0.21203548955124474,-0.01640857485838032,-0.7800950052683249,0.5884075905333758,0.0025,0.0,0.0,0.0,0.0025,0.0,0.0,0.0,0.0025,0.0,-0.01,0.47,0.02,0.0,0.0,0.0,0.02,0.0,0.0,0.0,0.02,-0.32290851562499995,0.43131078124999994,-0.11568015624999999,0.04,0.0,0.0,0.0,0.04,0.0,0.0,0.0,0.04
1614558370.0284321,2065,1614558370,33884048,base_imu_link,0.21177205229122015,-0.017395543897315846,-0.77744084664138,0.5919761168277106,0.0025,0.0,0.0,0.0,0.0025,0.0,0.0,0.0,0.0025,-0.01,-0.02,0.46,0.02,0.0,0.0,0.0,0.02,0.0,0.0,0.0,0.02,0.16317796874999999,0.47612726562499996,0.292264765625,0.04,0.0,0.0,0.0,0.04,0.0,0.0,0.0,0.04
1614558370.0487812,2066,1614558370,54091930,base_imu_link,0.21148828588296859,-0.018164493983170202,-0.7750247451705021,0.5952137435123769,0.0025,0.0,0.0,0.0,0.0025,0.0,0.0,0.0,0.0025,-0.03,-0.02,0.45,0.02,0.0,0.0,0.0,0.02,0.0,0.0,0.0,0.02,0.007277890624999999,0.507537109375,0.026430234374999997,0.04,0.0,0.0,0.0,0.04,0.0,0.0,0.0,0.04
1614558370.0688388,2067,1614558370,74264049,base_imu_link,0.21101970632958736,-0.019102078396977584,-0.7725976633486836,0.5984969880706539,0.0025,0.0,0.0,0.0,0.0025,0.0,0.0,0.0,0.0025,-0.03,-0.03,0.46,0.02,0.0,0.0,0.0,0.02,0.0,0.0,0.0,0.02,-0.04749781249999999,0.341294765625,-0.3815146875,0.04,0.0,0.0,0.0,0.04,0.0,0.0,0.0,0.04
1614558370.0887074,2068,1614558370,94064950,base_imu_link,0.21061324326557057,-0.020123541175082985,-0.7698350289575387,0.6021554060553453,0.0025,0.0,0.0,0.0,0.0025,0.0,0.0,0.0,0.0025,-0.02,-0.03,0.49,0.02,0.0,0.0,0.0,0.02,0.0,0.0,0.0,0.02,0.29647828125,0.12946984374999998,1.21425859375,0.04,0.0,0.0,0.0,0.04,0.0,0.0,0.0,0.04
1614558370.1090431,2069,1614558370,114365100,base_imu_link,0.21058352839684197,-0.021071875396691905,-0.7667216430275593,0.6060927946678814,0.0025,0.0,0.0,0.0,0.0025,0.0,0.0,0.0,0.0025,-0.01,0.01,0.52,0.02,0.0,0.0,0.0,0.02,0.0,0.0,0.0,0.02,0.090016015625,0.0934634375,1.036907890625,0.04,0.0,0.0,0.0,0.04,0.0,0.0,0.0,0.04
1614558370.127078,2070,1614558370,131963968,base_imu_link,0.21067682754072048,-0.02212324475338262,-0.7638451149088866,0.6096445495604708,0.0025,0.0,0.0,0.0,0.0025,0.0,0.0,0.0,0.0025,0.02,0.01,0.49,0.02,0.0,0.0,0.0,0.02,0.0,0.0,0.0,0.02,0.41560585937499994,0.2374890625,-1.3038915624999998,0.04,0.0,0.0,0.0,0.04,0.0,0.0,0.0,0.04
1614558370.1493914,2071,1614558370,154345035,base_imu_link,0.2106759523865973,-0.023028650928945835,-0.7612722242772487,0.6128212829743782,0.0025,0.0,0.0,0.0,0.0025,0.0,0.0,0.0,0.0025,0.0,0.01,0.45,0.02,0.0,0.0,0.0,0.02,0.0,0.0,0.0,0.02,0.328271171875,0.4133075781249999,0.9484240625,0.04,0.0,0.0,0.0,0.04,0.0,0.0,0.0,0.04
1614558370.1695948,2072,1614558370,174719095,base_imu_link,0.21069986113201672,-0.023743522617114057,-0.758845252244631,0.6157886786864971,0.0025,0.0,0.0,0.0,0.0025,0.0,0.0,0.0,0.0025,-0.02,0.02,0.43,0.02,0.0,0.0,0.0,0.02,0.0,0.0,0.0,0.02,-0.033708125,0.530136875,-0.48800171875,0.04,0.0,0.0,0.0,0.04,0.0,0.0,0.0,0.04
1614558370.1901867,2073,1614558370,194226980,base_imu_link,0.2105214535667881,-0.024894079459096705,-0.7564563777476258,0.6187364147688028,0.0025,0.0,0.0,0.0,0.0025,0.0,0.0,0.0,0.0025,0.0,-0.02,0.45,0.02,0.0,0.0,0.0,0.02,0.0,0.0,0.0,0.02,0.30567140625,0.28728515624999995,0.59372265625,0.04,0.0,0.0,0.0,0.04,0.0,0.0,0.0,0.04
1614558370.2093987,2074,1614558370,214500904,base_imu_link,0.21032543536563586,-0.025728904627844107,-0.7536747598355097,0.6221539930690743,0.0025,0.0,0.0,0.0,0.0025,0.0,0.0,0.0,0.0025,-0.02,-0.0,0.48,0.02,0.0,0.0,0.0,0.02,0.0,0.0,0.0,0.02,0.05784007812499999,0.11606320312499999,3.289223515625,0.04,0.0,0.0,0.0,0.04,0.0,0.0,0.0,0.04
1614558370.228789,2075,1614558370,234568119,base_imu_link,0.210573012370955,-0.026285858832147402,-0.7508697745666071,0.6254299654867607,0.0025,0.0,0.0,0.0,0.0025,0.0,0.0,0.0,0.0025,-0.02,0.05,0.46,0.02,0.0,0.0,0.0,0.02,0.0,0.0,0.0,0.02,-0.029111562499999997,0.06205359375,-1.3038915624999998,0.04,0.0,0.0,0.0,0.04,0.0,0.0,0.0,0.04
1614558370.2511315,2076,1614558370,254322052,base_imu_link,0.21097225308899395,-0.027270486270471336,-0.7483670605784912,0.6282465850653183,0.0025,0.0,0.0,0.0,0.0025,0.0,0.0,0.0,0.0025,0.03,0.03,0.43,0.02,0.0,0.0,0.0,0.02,0.0,0.0,0.0,0.02,0.19535390624999996,0.296095234375,0.061670546874999996,0.04,0.0,0.0,0.0,0.04,0.0,0.0,0.0,0.04
1614558370.269261,2077,1614558370,274799108,base_imu_link,0.21103724885125716,-0.028108063171926878,-0.7458586073011568,0.6311641262752457,0.0025,0.0,0.0,0.0,0.0025,0.0,0.0,0.0,0.0025,0.0,0.01,0.42,0.02,0.0,0.0,0.0,0.02,0.0,0.0,0.0,0.02,-0.26774976562499997,0.5435435156249999,0.9484240625,0.04,0.0,0.0,0.0,0.04,0.0,0.0,0.0,0.04
1614558370.289764,2078,1614558370,294601917,base_imu_link,0.21082921300803747,-0.028812274182164282,-0.7431754583017582,0.6343588369186913,0.0025,0.0,0.0,0.0,0.0025,0.0,0.0,0.0,0.0025,-0.03,0.01,0.46,0.02,0.0,0.0,0.0,0.02,0.0,0.0,0.0,0.02,-0.276942890625,0.5753364062499999,0.327888125,0.04,0.0,0.0,0.0,0.04,0.0,0.0,0.0,0.04
1614558370.309777,2079,1614558370,314662933,base_imu_link,0.210612931972065,-0.029801779235244893,-0.7405796948954831,0.6374133371283166,0.0025,0.0,0.0,0.0,0.0025,0.0,0.0,0.0,0.0025,-0.02,-0.01,0.48,0.02,0.0,0.0,0.0,0.02,0.0,0.0,0.0,0.02,-0.061287499999999995,0.46272062499999994,0.18577773437499998,0.04,0.0,0.0,0.0,0.04,0.0,0.0,0.0,0.04
1614558370.328984,2080,1614558370,334595918,base_imu_link,0.2101892494262998,-0.030585578209548964,-0.7377500206343333,0.6407885055813947,0.0025,0.0,0.0,0.0,0.0025,0.0,0.0,0.0,0.0025,-0.04,-0.01,0.48,0.02,0.0,0.0,0.0,0.02,0.0,0.0,0.0,0.02,0.19075734375,0.372704609375,0.150537421875,0.04,0.0,0.0,0.0,0.04,0.0,0.0,0.0,0.04
1614558370.349006,2081,1614558370,354330062,base_imu_link,0.20972265576489718,-0.03120441145360986,-0.7349635931089623,0.6441049675084923,0.0025,0.0,0.0,0.0,0.0025,0.0,0.0,0.0,0.0025,-0.06,-0.0,0.48,0.02,0.0,0.0,0.0,0.02,0.0,0.0,0.0,0.02,-0.061287499999999995,0.27809203125,0.292264765625,0.04,0.0,0.0,0.0,0.04,0.0,0.0,0.0,0.04
1614558370.3694568,2082,1614558370,374368906,base_imu_link,0.20936014481787057,-0.03225675468138266,-0.7323144351368663,0.6471811181033001,0.0025,0.0,0.0,0.0,0.0025,0.0,0.0,0.0,0.0025,-0.02,-0.02,0.49,0.02,0.0,0.0,0.0,0.02,0.0,0.0,0.0,0.02,-0.061287499999999995,0.197269140625,0.22140109375,0.04,0.0,0.0,0.0,0.04,0.0,0.0,0.0,0.04
1614558370.3894987,2083,1614558370,394965887,base_imu_link,0.2089135323429619,-0.03326739418662923,-0.729133011720796,0.6508559500434633,0.0025,0.0,0.0,0.0,0.0025,0.0,0.0,0.0,0.0025,-0.02,-0.03,0.5,0.02,0.0,0.0,0.0,0.02,0.0,0.0,0.0,0.02,0.30567140625,0.1700728125,1.480476171875,0.04,0.0,0.0,0.0,0.04,0.0,0.0,0.0,0.04
1614558370.4103003,2084,1614558370,415147066,base_imu_link,0.20889250308464252,-0.034251417209060345,-0.7259831428203212,0.6543234971441364,0.0025,0.0,0.0,0.0,0.0025,0.0,0.0,0.0,0.0025,-0.0,0.01,0.5,0.02,0.0,0.0,0.0,0.02,0.0,0.0,0.0,0.02,0.11759539062499999,0.260088828125,0.433992109375,0.04,0.0,0.0,0.0,0.04,0.0,0.0,0.0,0.04
1614558370.4299784,2085,1614558370,435389995,base_imu_link,0.20870399523452354,-0.03510152102413178,-0.722992672632434,0.657641331513425,0.0025,0.0,0.0,0.0,0.0025,0.0,0.0,0.0,0.0025,-0.01,0.0,0.49,0.02,0.0,0.0,0.0,0.02,0.0,0.0,0.0,0.02,0.071629765625,0.31409843749999994,-0.9491901562499999,0.04,0.0,0.0,0.0,0.04,0.0,0.0,0.0,0.04
1614558370.4502246,2086,1614558370,454981088,base_imu_link,0.2084162265898089,-0.036020057956483456,-0.7198046544017519,0.6611705463951427,0.0025,0.0,0.0,0.0,0.0025,0.0,0.0,0.0,0.0025,-0.02,-0.0,0.49,0.02,0.0,0.0,0.0,0.02,0.0,0.0,0.0,0.02,0.26889890624999996,0.23327554687499996,1.143394921875,0.04,0.0,0.0,0.0,0.04,0.0,0.0,0.0,0.04
1614558370.4705071,2087,1614558370,475244045,base_imu_link,0.20848760968532246,-0.03687856708465655,-0.7167724168217333,0.6643870787282172,0.0025,0.0,0.0,0.0,0.0025,0.0,0.0,0.0,0.0025,0.0,0.02,0.48,0.02,0.0,0.0,0.0,0.02,0.0,0.0,0.0,0.02,-0.006511796875,0.260088828125,0.824316875,0.04,0.0,0.0,0.0,0.04,0.0,0.0,0.0,0.04
1614558370.4909606,2088,1614558370,496006011,base_imu_link,0.2085561601114066,-0.03793295613329399,-0.7139480839957862,0.6673406568442543,0.0025,0.0,0.0,0.0,0.0025,0.0,0.0,0.0,0.0025,0.03,0.01,0.45,0.02,0.0,0.0,0.0,0.02,0.0,0.0,0.0,0.02,0.42479898437499997,0.341294765625,-1.3391318749999999,0.04,0.0,0.0,0.0,0.04,0.0,0.0,0.0,0.04
1614558370.5103326,2089,1614558370,515480995,base_imu_link,0.20864207696370074,-0.038722427678791735,-0.7110609433272809,0.6703442340987585,0.0025,0.0,0.0,0.0,0.0025,0.0,0.0,0.0,0.0025,0.0,0.02,0.43,0.02,0.0,0.0,0.0,0.02,0.0,0.0,0.0,0.02,0.016471015624999998,0.255492265625,1.8704178906249997,0.04,0.0,0.0,0.0,0.04,0.0,0.0,0.0,0.04
1614558370.5302727,2090,1614558370,535135030,base_imu_link,0.20879011603306025,-0.0396098489339326,-0.7082713027251377,0.673193515306237,0.0025,0.0,0.0,0.0,0.0025,0.0,0.0,0.0,0.0025,0.01,0.03,0.45,0.02,0.0,0.0,0.0,0.02,0.0,0.0,0.0,0.02,-0.1670084375,0.300691796875,-0.026813281249999998,0.04,0.0,0.0,0.0,0.04,0.0,0.0,0.0,0.04
1614558370.5505571,2091,1614558370,555339097,base_imu_link,0.20878278787797877,-0.040873136311212935,-0.7052640111309524,0.6762705145261503,0.0025,0.0,0.0,0.0,0.0025,0.0,0.0,0.0,0.0025,0.03,-0.01,0.48,0.02,0.0,0.0,0.0,0.02,0.0,0.0,0.0,0.02,0.29647828125,0.296095234375,0.6113428125,0.04,0.0,0.0,0.0,0.04,0.0,0.0,0.0,0.04
1614558370.5698802,2092,1614558370,575512886,base_imu_link,0.20882432432517803,-0.04169149802058901,-0.7026261946474744,0.6789481947528407,0.0025,0.0,0.0,0.0,0.0025,0.0,0.0,0.0,0.0025,-0.01,0.03,0.46,0.02,0.0,0.0,0.0,0.02,0.0,0.0,0.0,0.02,-0.35048789062499996,0.21067578124999997,2.154255625,0.04,0.0,0.0,0.0,0.04,0.0,0.0,0.0,0.04
1614558370.5911248,2093,1614558370,595834970,base_imu_link,0.20889784956130394,-0.04291139301922166,-0.6996460222484743,0.6819206290688824,0.0025,0.0,0.0,0.0,0.0025,0.0,0.0,0.0,0.0025,0.03,0.0,0.48,0.02,0.0,0.0,0.0,0.02,0.0,0.0,0.0,0.02,-0.221784140625,0.41752109374999996,-1.10853765625,0.04,0.0,0.0,0.0,0.04,0.0,0.0,0.0,0.04
1614558370.6102643,2094,1614558370,615659952,base_imu_link,0.20879667640400898,-0.04386189770180329,-0.6967862649924098,0.6848131006125419,0.0025,0.0,0.0,0.0,0.0025,0.0,0.0,0.0,0.0025,0.0,-0.0,0.47,0.02,0.0,0.0,0.0,0.02,0.0,0.0,0.0,0.02,0.16317796874999999,0.6067462499999999,-0.009193124999999998,0.04,0.0,0.0,0.0,0.04,0.0,0.0,0.0,0.04
1614558370.6312182,2095,1614558370,635500907,base_imu_link,0.20817433560636056,-0.04449662828509987,-0.6938682774997674,0.6879173711614015,0.0025,0.0,0.0,0.0,0.0025,0.0,0.0,0.0,0.0025,-0.06,-0.0,0.48,0.02,0.0,0.0,0.0,0.02,0.0,0.0,0.0,0.02,-0.033708125,0.309501875,2.189878984375,0.04,0.0,0.0,0.0,0.04,0.0,0.0,0.0,0.04
1614558370.6501393,2096,1614558370,655649900,base_imu_link,0.20799969339158428,-0.045345200201486205,-0.6906129589224588,0.6911828132528038,0.0025,0.0,0.0,0.0,0.0025,0.0,0.0,0.0,0.0025,-0.02,0.01,0.5,0.02,0.0,0.0,0.0,0.02,0.0,0.0,0.0,0.02,-0.235573828125,0.269281953125,0.292264765625,0.04,0.0,0.0,0.0,0.04,0.0,0.0,0.0,0.04
1614558370.6709101,2097,1614558370,676172018,base_imu_link,0.20752336545148747,-0.04635569306140659,-0.687633908741182,0.6942224499840152,0.0025,0.0,0.0,0.0,0.0025,0.0,0.0,0.0,0.0025,-0.02,-0.01,0.49,0.02,0.0,0.0,0.0,0.02,0.0,0.0,0.0,0.02,0.09920914062499998,0.27809203125,-1.2506480468749999,0.04,0.0,0.0,0.0,0.04,0.0,0.0,0.0,0.04
1614558370.6907134,2098,1614558370,696017026,base_imu_link,0.20711578432280325,-0.04730721809487856,-0.6846419339207366,0.6972305940775602,0.0025,0.0,0.0,0.0,0.0025,0.0,0.0,0.0,0.0025,-0.02,-0.01,0.49,0.02,0.0,0.0,0.0,0.02,0.0,0.0,0.0,0.02,0.26430234375,0.16547625,1.249881953125,0.04,0.0,0.0,0.0,0.04,0.0,0.0,0.0,0.04
1614558370.7109528,2099,1614558370,716063976,base_imu_link,0.20684995890375502,-0.048345365467921245,-0.6815017109943657,0.7003079594371607,0.0025,0.0,0.0,0.0,0.0025,0.0,0.0,0.0,0.0025,-0.01,0.0,0.51,0.02,0.0,0.0,0.0,0.02,0.0,0.0,0.0,0.02,-0.0842703125,0.269281953125,0.3631284375,0.04,0.0,0.0,0.0,0.04,0.0,0.0,0.0,0.04
1614558370.7304688,2100,1614558370,735987901,base_imu_link,0.2066666720243865,-0.0494093430195556,-0.6782154712754972,0.7034709503734295,0.0025,0.0,0.0,0.0,0.0025,0.0,0.0,0.0,0.0025,0.0,-0.0,0.5,0.02,0.0,0.0,0.0,0.02,0.0,0.0,0.0,0.02,0.067033203125,0.255492265625,-0.026813281249999998,0.04,0.0,0.0,0.0,0.04,0.0,0.0,0.0,0.04
1614558370.7507567,2101,1614558370,756185054,base_imu_link,0.2064836205119159,-0.05052948700964885,-0.6750940717559879,0.706441278297605,0.0025,0.0,0.0,0.0,0.0025,0.0,0.0,0.0,0.0025,0.01,-0.0,0.49,0.02,0.0,0.0,0.0,0.02,0.0,0.0,0.0,0.02,0.429395546875,0.3815146875,0.84193703125,0.04,0.0,0.0,0.0,0.04,0.0,0.0,0.0,0.04
1614558370.7707489,2102,1614558370,776132106,base_imu_link,0.20628723219984385,-0.05131909244442728,-0.6721099647465208,0.7092814137353652,0.0025,0.0,0.0,0.0,0.0025,0.0,0.0,0.0,0.0025,-0.01,0.01,0.45,0.02,0.0,0.0,0.0,0.02,0.0,0.0,0.0,0.02,-0.033708125,0.35929796875,0.23902125,0.04,0.0,0.0,0.0,0.04,0.0,0.0,0.0,0.04
1614558370.7949746,2103,1614558370,796536922,base_imu_link,0.205905241230956,-0.052411716903475694,-0.6694640686407061,0.7118103008273229,0.0025,0.0,0.0,0.0,0.0025,0.0,0.0,0.0,0.0025,-0.0,-0.02,0.44,0.02,0.0,0.0,0.0,0.02,0.0,0.0,0.0,0.02,0.08541945312499999,0.35470140624999996,-0.754219296875,0.04,0.0,0.0,0.0,0.04,0.0,0.0,0.0,0.04
1614558370.8111522,2104,1614558370,816368103,base_imu_link,0.20547551605673187,-0.05343109982104281,-0.6667465639796446,0.7144046117533616,0.0025,0.0,0.0,0.0,0.0025,0.0,0.0,0.0,0.0025,-0.01,-0.02,0.46,0.02,0.0,0.0,0.0,0.02,0.0,0.0,0.0,0.02,0.06243664062499999,0.25127874999999994,2.01252828125,0.04,0.0,0.0,0.0,0.04,0.0,0.0,0.0,0.04
1614558370.8308713,2105,1614558370,836210012,base_imu_link,0.20531774186481203,-0.05449128278730528,-0.663757124734103,0.7171483837675751,0.0025,0.0,0.0,0.0,0.0025,0.0,0.0,0.0,0.0025,0.01,0.0,0.47,0.02,0.0,0.0,0.0,0.02,0.0,0.0,0.0,0.02,0.007277890624999999,0.20607921875,0.150537421875,0.04,0.0,0.0,0.0,0.04,0.0,0.0,0.0,0.04
1614558370.851362,2106,1614558370,856853961,base_imu_link,0.20515722502926148,-0.05590569061279477,-0.6611046994231708,0.7195315442536196,0.0025,0.0,0.0,0.0,0.0025,0.0,0.0,0.0,0.0025,0.03,-0.02,0.47,0.02,0.0,0.0,0.0,0.02,0.0,0.0,0.0,0.02,0.47995773437499994,0.219485859375,-0.7009757812499999,0.04,0.0,0.0,0.0,0.04,0.0,0.0,0.0,0.04
1614558370.8716695,2107,1614558370,876298904,base_imu_link,0.2048915882725456,-0.0568717905038275,-0.6581569492937088,0.7222288187246759,0.0025,0.0,0.0,0.0,0.0025,0.0,0.0,0.0,0.0025,0.0,-0.0,0.45,0.02,0.0,0.0,0.0,0.02,0.0,0.0,0.0,0.02,-0.061287499999999995,0.43131078124999994,1.07253125,0.04,0.0,0.0,0.0,0.04,0.0,0.0,0.0,0.04
1614558370.8915606,2108,1614558370,896867036,base_imu_link,0.20443468317515565,-0.05786264347842643,-0.6554497464012562,0.7247371970219902,0.0025,0.0,0.0,0.0,0.0025,0.0,0.0,0.0,0.0025,-0.02,-0.02,0.45,0.02,0.0,0.0,0.0,0.02,0.0,0.0,0.0,0.02,-0.0019152343749999998,0.53933,-0.6829725781249999,0.04,0.0,0.0,0.0,0.04,0.0,0.0,0.0,0.04
1614558370.9117231,2109,1614558370,917251110,base_imu_link,0.20381929801713763,-0.05891317006443837,-0.6526556169671635,0.7273428199892887,0.0025,0.0,0.0,0.0,0.0025,0.0,0.0,0.0,0.0025,-0.02,-0.03,0.47,0.02,0.0,0.0,0.0,0.02,0.0,0.0,0.0,0.02,0.16317796874999999,0.43552429687499994,2.065771796875,0.04,0.0,0.0,0.0,0.04,0.0,0.0,0.0,0.04
1614558370.9319923,2110,1614558370,937154054,base_imu_link,0.20340820084236,-0.059664948631022646,-0.6494884008890679,0.7302260025810454,0.0025,0.0,0.0,0.0,0.0025,0.0,0.0,0.0,0.0025,-0.03,0.01,0.5,0.02,0.0,0.0,0.0,0.02,0.0,0.0,0.0,0.02,-0.16241187499999998,0.33669820312499993,0.8775603906249999,0.04,0.0,0.0,0.0,0.04,0.0,0.0,0.0,0.04
1614558370.9515321,2111,1614558370,957088947,base_imu_link,0.20306435787653287,-0.06065258593105166,-0.6464785433874389,0.7329062854961219,0.0025,0.0,0.0,0.0,0.0025,0.0,0.0,0.0,0.0025,-0.01,0.01,0.5,0.02,0.0,0.0,0.0,0.02,0.0,0.0,0.0,0.02,-0.04749781249999999,0.20148265624999998,-0.9844304687499998,0.04,0.0,0.0,0.0,0.04,0.0,0.0,0.0,0.04
1614558370.9728756,2112,1614558370,976922988,base_imu_link,0.20281699329330416,-0.06147102215922995,-0.6430765889569412,0.7358933899700884,0.0025,0.0,0.0,0.0,0.0025,0.0,0.0,0.0,0.0025,-0.01,0.01,0.49,0.02,0.0,0.0,0.0,0.02,0.0,0.0,0.0,0.02,0.33286773437499995,0.14325953125,0.327888125,0.04,0.0,0.0,0.0,0.04,0.0,0.0,0.0,0.04
1614558370.991171,2113,1614558370,996885061,base_imu_link,0.20258583753866205,-0.062432139870738465,-0.6397076078476597,0.7388067289905691,0.0025,0.0,0.0,0.0,0.0025,0.0,0.0,0.0,0.0025,0.0,0.01,0.5,0.02,0.0,0.0,0.0,0.02,0.0,0.0,0.0,0.02,0.053243515624999994,0.161262734375,1.6754470312499998,0.04,0.0,0.0,0.0,0.04,0.0,0.0,0.0,0.04
1614558371.0131154,2114,1614558371,16974925,base_imu_link,0.2023611208181334,-0.06357086491381692,-0.6365009663991538,0.7415357319025708,0.0025,0.0,0.0,0.0,0.0025,0.0,0.0,0.0,0.0025,0.01,0.0,0.52,0.02,0.0,0.0,0.0,0.02,0.0,0.0,0.0,0.02,-0.1394290625,0.42211765625,0.4163719531249999,0.04,0.0,0.0,0.0,0.04,0.0,0.0,0.0,0.04
1614558371.0325556,2115,1614558371,37942886,base_imu_link,0.20187002671818322,-0.06460894881609394,-0.6330168977514408,0.7445560980925625,0.0025,0.0,0.0,0.0,0.0025,0.0,0.0,0.0,0.0025,-0.02,-0.0,0.52,0.02,0.0,0.0,0.0,0.02,0.0,0.0,0.0,0.02,0.05784007812499999,0.4535275,-0.8783264843749999,0.04,0.0,0.0,0.0,0.04,0.0,0.0,0.0,0.04
1614558371.0515614,2116,1614558371,57174921,base_imu_link,0.20132618560421744,-0.06559702297249692,-0.629519667495668,0.7475759398237383,0.0025,0.0,0.0,0.0,0.0025,0.0,0.0,0.0,0.0025,-0.03,-0.01,0.52,0.02,0.0,0.0,0.0,0.02,0.0,0.0,0.0,0.02,0.19075734375,0.38611124999999996,0.5404791406249999,0.04,0.0,0.0,0.0,0.04,0.0,0.0,0.0,0.04
1614558371.0715904,2117,1614558371,77049016,base_imu_link,0.20078635681912854,-0.06638494714275706,-0.6264363667666801,0.7502368666630003,0.0025,0.0,0.0,0.0,0.0025,0.0,0.0,0.0,0.0025,-0.03,0.01,0.49,0.02,0.0,0.0,0.0,0.02,0.0,0.0,0.0,0.02,-0.06588406249999999,0.35010484375,0.27464460937499996,0.04,0.0,0.0,0.0,0.04,0.0,0.0,0.0,0.04
1614558371.091647,2118,1614558371,97018003,base_imu_link,0.2002081960889086,-0.06731741018027956,-0.623864460333532,0.7524481242173414,0.0025,0.0,0.0,0.0,0.0025,0.0,0.0,0.0,0.0025,-0.03,-0.01,0.47,0.02,0.0,0.0,0.0,0.02,0.0,0.0,0.0,0.02,0.025664140624999998,0.219485859375,0.1149140625,0.04,0.0,0.0,0.0,0.04,0.0,0.0,0.0,0.04
1614558371.1122065,2119,1614558371,117455959,base_imu_link,0.1997527386347431,-0.06832508401518954,-0.6208651300083634,0.7549549765661098,0.0025,0.0,0.0,0.0,0.0025,0.0,0.0,0.0,0.0025,-0.01,-0.01,0.47,0.02,0.0,0.0,0.0,0.02,0.0,0.0,0.0,0.02,0.15858140624999997,0.14325953125,1.480476171875,0.04,0.0,0.0,0.0,0.04,0.0,0.0,0.0,0.04
1614558371.132612,2120,1614558371,137319087,base_imu_link,0.19934082418252339,-0.06932107454133524,-0.6180602225743207,0.757271012062424,0.0025,0.0,0.0,0.0,0.0025,0.0,0.0,0.0,0.0025,-0.01,0.01,0.48,0.02,0.0,0.0,0.0,0.02,0.0,0.0,0.0,0.02,-0.1348325,0.183479453125,0.6113428125,0.04,0.0,0.0,0.0,0.04,0.0,0.0,0.0,0.04
1614558371.1519105,2121,1614558371,157413005,base_imu_link,0.1987098545829891,-0.07048719669558008,-0.6152855523941827,0.7595851748214886,0.0025,0.0,0.0,0.0,0.0025,0.0,0.0,0.0,0.0025,-0.02,-0.02,0.5,0.02,0.0,0.0,0.0,0.02,0.0,0.0,0.0,0.02,-0.029111562499999997,0.18807601562499998,-0.8250829687499999,0.04,0.0,0.0,0.0,0.04,0.0,0.0,0.0,0.04
1614558371.1721766,2122,1614558371,177414894,base_imu_link,0.19807174281078546,-0.0714660347540266,-0.6119725767904698,0.7623317885493606,0.0025,0.0,0.0,0.0,0.0025,0.0,0.0,0.0,0.0025,-0.03,-0.01,0.5,0.02,0.0,0.0,0.0,0.02,0.0,0.0,0.0,0.02,-0.30452226562499995,0.183479453125,2.9345221093749996,0.04,0.0,0.0,0.0,0.04,0.0,0.0,0.0,0.04
1614558371.1930833,2123,1614558371,198116064,base_imu_link,0.19748411815107692,-0.07283167784283193,-0.6086602242370912,0.7650021576520838,0.0025,0.0,0.0,0.0,0.0025,0.0,0.0,0.0,0.0025,-0.0,-0.04,0.5,0.02,0.0,0.0,0.0,0.02,0.0,0.0,0.0,0.02,-0.144025625,0.46731718749999995,-0.47038156249999996,0.04,0.0,0.0,0.0,0.04,0.0,0.0,0.0,0.04
1614558371.2120805,2124,1614558371,217639923,base_imu_link,0.19656824846762114,-0.0739552944657295,-0.6054301409139371,0.7676886625369617,0.0025,0.0,0.0,0.0,0.0025,0.0,0.0,0.0,0.0025,-0.04,-0.04,0.5,0.02,0.0,0.0,0.0,0.02,0.0,0.0,0.0,0.02,0.369640234375,0.42211765625,0.18577773437499998,0.04,0.0,0.0,0.0,0.04,0.0,0.0,0.0,0.04
1614558371.2330372,2125,1614558371,237960100,base_imu_link,0.1960451332656206,-0.07453852142634895,-0.6019915873735671,0.7704650824520808,0.0025,0.0,0.0,0.0,0.0025,0.0,0.0,0.0,0.0025,-0.04,0.03,0.51,0.02,0.0,0.0,0.0,0.02,0.0,0.0,0.0,0.02,-0.052094375,0.260088828125,2.597440859375,0.04,0.0,0.0,0.0,0.04,0.0,0.0,0.0,0.04
1614558371.28344,2126,1614558371,257855892,base_imu_link,0.19557849848051223,-0.07555782933621497,-0.5990362331328547,0.7727843533302857,0.0025,0.0,0.0,0.0,0.0025,0.0,0.0,0.0,0.0025,-0.01,-0.0,0.49,0.02,0.0,0.0,0.0,0.02,0.0,0.0,0.0,0.02,-0.08886687499999998,0.27349546874999997,-1.44561890625,0.04,0.0,0.0,0.0,0.04,0.0,0.0,0.0,0.04
1614558371.2834535,2127,1614558371,278405904,base_imu_link,0.19505998713233771,-0.07651177521004797,-0.5960076848386578,0.7751595895603707,0.0025,0.0,0.0,0.0,0.0025,0.0,0.0,0.0,0.0025,-0.01,0.0,0.49,0.02,0.0,0.0,0.0,0.02,0.0,0.0,0.0,0.02,0.44318523437499996,0.24668218749999998,0.6822064843749999,0.04,0.0,0.0,0.0,0.04,0.0,0.0,0.0,0.04
