Time,header.seq,header.stamp.secs,header.stamp.nsecs,header.frame_id,orientation.x,orientation.y,orientation.z,orientation.w,orientation_covariance_0,orientation_covariance_1,orientation_covariance_2,orientation_covariance_3,orientation_covariance_4,orientation_covariance_5,orientation_covariance_6,orientation_covariance_7,orientation_covariance_8,angular_velocity.x,angular_velocity.y,angular_velocity.z,angular_velocity_covariance_0,angular_velocity_covariance_1,angular_velocity_covariance_2,angular_velocity_covariance_3,angular_velocity_covariance_4,angular_velocity_covariance_5,angular_velocity_covariance_6,angular_velocity_covariance_7,angular_velocity_covariance_8,linear_acceleration.x,linear_acceleration.y,linear_acceleration.z,linear_acceleration_covariance_0,linear_acceleration_covariance_1,linear_acceleration_covariance_2,linear_acceleration_covariance_3,linear_acceleration_covariance_4,linear_acceleration_covariance_5,linear_acceleration_covariance_6,linear_acceleration_covariance_7,linear_acceleration_covariance_8
1614383825.3777716,1,1614383825,376983880,base_imu_link,0.07692434946452346,0.07789460603872744,-0.6696479321373215,0.7345656688096309,0.0025,0.0,0.0,0.0,0.0025,0.0,0.0,0.0,0.0025,0.01,-0.05,-0.01,0.02,0.0,0.0,0.0,0.02,0.0,0.0,0.0,0.02,-2.1833671875,0.067033203125,9.59072765625,0.04,0.0,0.0,0.0,0.04,0.0,0.0,0.0,0.04
1614383825.3980203,2,1614383825,397063970,base_imu_link,0.07693114675833322,0.07788789282626973,-0.6697120325348741,0.7345072282064616,0.0025,0.0,0.0,0.0,0.0025,0.0,0.0,0.0,0.0025,0.01,-0.05,-0.01,0.02,0.0,0.0,0.0,0.02,0.0,0.0,0.0,0.02,-2.178770625,0.0720128125,9.59072765625,0.04,0.0,0.0,0.0,0.04,0.0,0.0,0.0,0.04
1614383825.417697,3,1614383825,416903972,base_imu_link,0.07686704861792297,0.07794633592966023,-0.669705232983922,0.7345139389186983,0.0025,0.0,0.0,0.0,0.0025,0.0,0.0,0.0,0.0025,0.01,-0.05,-0.01,0.02,0.0,0.0,0.0,0.02,0.0,0.0,0.0,0.02,-2.1833671875,0.08618554687499999,9.585748046874999,0.04,0.0,0.0,0.0,0.04,0.0,0.0,0.0,0.04
1614383825.43754,4,1614383825,436857938,base_imu_link,0.07700313107579944,0.07793860920070425,-0.669834071497345,0.7343830115557364,0.0025,0.0,0.0,0.0,0.0025,0.0,0.0,0.0,0.0025,0.01,-0.05,-0.01,0.02,0.0,0.0,0.0,0.02,0.0,0.0,0.0,0.02,-2.188346796875,0.08120593749999999,9.59072765625,0.04,0.0,0.0,0.0,0.04,0.0,0.0,0.0,0.04
1614383825.4575684,5,1614383825,456931114,base_imu_link,0.07703713087819018,0.07790500282827442,-0.6701544427617602,0.7340906714071892,0.0025,0.0,0.0,0.0,0.0025,0.0,0.0,0.0,0.0025,0.01,-0.05,-0.01,0.02,0.0,0.0,0.0,0.02,0.0,0.0,0.0,0.02,-2.1833671875,0.0720128125,9.585748046874999,0.04,0.0,0.0,0.0,0.04,0.0,0.0,0.0,0.04
1614383825.477729,6,1614383825,477057933,base_imu_link,0.07698667511139408,0.07795004901688204,-0.6702757556735085,0.7339804173612983,0.0025,0.0,0.0,0.0,0.0025,0.0,0.0,0.0,0.0025,0.01,-0.05,-0.01,0.02,0.0,0.0,0.0,0.02,0.0,0.0,0.0,0.02,-2.178770625,0.076609375,9.585748046874999,0.04,0.0,0.0,0.0,0.04,0.0,0.0,0.0,0.04
1614383825.4977512,7,1614383825,496999979,base_imu_link,0.07698667511139408,0.07795004901688204,-0.6702757556735085,0.7339804173612983,0.0025,0.0,0.0,0.0,0.0025,0.0,0.0,0.0,0.0025,0.01,-0.05,-0.01,0.02,0.0,0.0,0.0,0.02,0.0,0.0,0.0,0.02,-2.178770625,0.076609375,9.59072765625,0.04,0.0,0.0,0.0,0.04,0.0,0.0,0.0,0.04
1614383825.5179398,8,1614383825,517082929,base_imu_link,0.076979872393222,0.07795676707486601,-0.6702117012467284,0.7340389071605978,0.0025,0.0,0.0,0.0,0.0025,0.0,0.0,0.0,0.0025,0.01,-0.05,-0.01,0.02,0.0,0.0,0.0,0.02,0.0,0.0,0.0,0.02,-2.173791015625,0.067033203125,9.59072765625,0.04,0.0,0.0,0.0,0.04,0.0,0.0,0.0,0.04
1614383825.5381238,9,1614383825,537338972,base_imu_link,0.0769021977194687,0.07802867693621397,-0.6700767703466483,0.73416258376691,0.0025,0.0,0.0,0.0,0.0025,0.0,0.0,0.0,0.0025,0.01,-0.05,-0.01,0.02,0.0,0.0,0.0,0.02,0.0,0.0,0.0,0.02,-2.1833671875,0.08120593749999999,9.59532421875,0.04,0.0,0.0,0.0,0.04,0.0,0.0,0.0,0.04
1614383825.5578194,10,1614383825,557116031,base_imu_link,0.0769934772432791,0.07794333036527448,-0.6703398049958469,0.7339219219724181,0.0025,0.0,0.0,0.0,0.0025,0.0,0.0,0.0,0.0025,0.01,-0.05,-0.01,0.02,0.0,0.0,0.0,0.02,0.0,0.0,0.0,0.02,-2.1833671875,0.08618554687499999,9.59072765625,0.04,0.0,0.0,0.0,0.04,0.0,0.0,0.0,0.04
1614383825.57826,11,1614383825,577250003,base_imu_link,0.07698667511139408,0.07795004901688204,-0.6702757556735085,0.7339804173612983,0.0025,0.0,0.0,0.0,0.0025,0.0,0.0,0.0,0.0025,0.01,-0.05,-0.01,0.02,0.0,0.0,0.0,0.02,0.0,0.0,0.0,0.02,-2.178770625,0.08120593749999999,9.59532421875,0.04,0.0,0.0,0.0,0.04,0.0,0.0,0.0,0.04
1614383825.5983846,12,1614383825,597554922,base_imu_link,0.0769934772432791,0.07794333036527448,-0.6703398049958469,0.7339219219724181,0.0025,0.0,0.0,0.0,0.0025,0.0,0.0,0.0,0.0025,0.01,-0.05,-0.01,0.02,0.0,0.0,0.0,0.02,0.0,0.0,0.0,0.02,-2.178770625,0.076609375,9.59532421875,0.04,0.0,0.0,0.0,0.04,0.0,0.0,0.0,0.04
1614383825.6180892,13,1614383825,617243051,base_imu_link,0.076979872393222,0.07795676707486601,-0.6702117012467284,0.7340389071605978,0.0025,0.0,0.0,0.0,0.0025,0.0,0.0,0.0,0.0025,0.01,-0.05,-0.01,0.02,0.0,0.0,0.0,0.02,0.0,0.0,0.0,0.02,-2.1833671875,0.08618554687499999,9.59072765625,0.04,0.0,0.0,0.0,0.04,0.0,0.0,0.0,0.04
1614383825.6384587,14,1614383825,637507915,base_imu_link,0.076979872393222,0.07795676707486601,-0.6702117012467284,0.7340389071605978,0.0025,0.0,0.0,0.0,0.0025,0.0,0.0,0.0,0.0025,0.01,-0.05,-0.01,0.02,0.0,0.0,0.0,0.02,0.0,0.0,0.0,0.02,-2.188346796875,0.076609375,9.59072765625,0.04,0.0,0.0,0.0,0.04,0.0,0.0,0.0,0.04
1614383825.6584413,15,1614383825,657519102,base_imu_link,0.07708594337744651,0.07797380536844849,-0.6706538094941077,0.7336220490286627,0.0025,0.0,0.0,0.0,0.0025,0.0,0.0,0.0,0.0025,0.01,-0.05,-0.01,0.02,0.0,0.0,0.0,0.02,0.0,0.0,0.0,0.02,-2.178770625,0.067033203125,9.59072765625,0.04,0.0,0.0,0.0,0.04,0.0,0.0,0.0,0.04
1614383825.6784673,16,1614383825,677601099,base_imu_link,0.07702067990691262,0.077916449823632,-0.670595951231028,0.7336878845300031,0.0025,0.0,0.0,0.0,0.0025,0.0,0.0,0.0,0.0025,0.01,-0.05,-0.01,0.02,0.0,0.0,0.0,0.02,0.0,0.0,0.0,0.02,-2.188346796875,0.08120593749999999,9.59532421875,0.04,0.0,0.0,0.0,0.04,0.0,0.0,0.0,0.04
1614383825.6985726,17,1614383825,697637081,base_imu_link,0.07705872068897526,0.07800070868784507,-0.6703976862363265,0.7338561066714322,0.0025,0.0,0.0,0.0,0.0025,0.0,0.0,0.0,0.0025,0.01,-0.05,-0.01,0.02,0.0,0.0,0.0,0.02,0.0,0.0,0.0,0.02,-2.1833671875,0.076609375,9.59072765625,0.04,0.0,0.0,0.0,0.04,0.0,0.0,0.0,0.04
1614383825.7182956,18,1614383825,717547893,base_imu_link,0.07708594337744651,0.07797380536844849,-0.6706538094941077,0.7336220490286627,0.0025,0.0,0.0,0.0,0.0025,0.0,0.0,0.0,0.0025,0.01,-0.05,-0.01,0.02,0.0,0.0,0.0,0.02,0.0,0.0,0.0,0.02,-2.169194453125,0.0720128125,9.59072765625,0.04,0.0,0.0,0.0,0.04,0.0,0.0,0.0,0.04
1614383825.73834,19,1614383825,737471103,base_imu_link,0.07697706442931583,0.0779548201867291,-0.6707812069996325,0.7335190180885675,0.0025,0.0,0.0,0.0,0.0025,0.0,0.0,0.0,0.0025,0.01,-0.05,-0.01,0.02,0.0,0.0,0.0,0.02,0.0,0.0,0.0,0.02,-2.178770625,0.076609375,9.576171875,0.04,0.0,0.0,0.0,0.04,0.0,0.0,0.0,0.04
1614383825.7582788,20,1614383825,757601022,base_imu_link,0.0770423486595639,0.07801216369100694,-0.6708390430210912,0.7334531731390984,0.0025,0.0,0.0,0.0,0.0025,0.0,0.0,0.0,0.0025,0.01,-0.05,-0.01,0.02,0.0,0.0,0.0,0.02,0.0,0.0,0.0,0.02,-2.178770625,0.08120593749999999,9.5807684375,0.04,0.0,0.0,0.0,0.04,0.0,0.0,0.0,0.04
1614383825.7786431,21,1614383825,777679920,base_imu_link,0.07710635423002953,0.07795362164377473,-0.6708458483122818,0.7334464471330865,0.0025,0.0,0.0,0.0,0.0025,0.0,0.0,0.0,0.0025,0.01,-0.05,-0.01,0.02,0.0,0.0,0.0,0.02,0.0,0.0,0.0,0.02,-2.173791015625,0.0720128125,9.59072765625,0.04,0.0,0.0,0.0,0.04,0.0,0.0,0.0,0.04
1614383825.7987907,22,1614383825,797827959,base_imu_link,0.07697026129481722,0.0779615374060047,-0.67071719283561,0.733577551998573,0.0025,0.0,0.0,0.0,0.0025,0.0,0.0,0.0,0.0025,0.01,-0.05,-0.01,0.02,0.0,0.0,0.0,0.02,0.0,0.0,0.0,0.02,-2.178770625,0.076609375,9.585748046874999,0.04,0.0,0.0,0.0,0.04,0.0,0.0,0.0,0.04
1614383825.818568,23,1614383825,817743062,base_imu_link,0.07695665326738567,0.07797497006337151,-0.6705891491846421,0.7336946030586007,0.0025,0.0,0.0,0.0,0.0025,0.0,0.0,0.0,0.0025,0.01,-0.05,-0.01,0.02,0.0,0.0,0.0,0.02,0.0,0.0,0.0,0.02,-2.173791015625,0.08618554687499999,9.585748046874999,0.04,0.0,0.0,0.0,0.04,0.0,0.0,0.0,0.04
1614383825.8386133,24,1614383825,837795972,base_imu_link,0.07704107574608585,0.07789628318686022,-0.6707880072868787,0.7335122977794285,0.0025,0.0,0.0,0.0,0.0025,0.0,0.0,0.0,0.0025,0.01,-0.05,-0.01,0.02,0.0,0.0,0.0,0.02,0.0,0.0,0.0,0.02,-2.1833671875,0.0720128125,9.59072765625,0.04,0.0,0.0,0.0,0.04,0.0,0.0,0.0,0.04
1614383825.8586342,25,1614383825,857842922,base_imu_link,0.07697026129481722,0.0779615374060047,-0.67071719283561,0.733577551998573,0.0025,0.0,0.0,0.0,0.0025,0.0,0.0,0.0,0.0025,0.01,-0.05,-0.01,0.02,0.0,0.0,0.0,0.02,0.0,0.0,0.0,0.02,-2.178770625,0.067033203125,9.599920781249999,0.04,0.0,0.0,0.0,0.04,0.0,0.0,0.0,0.04
1614383825.8789425,26,1614383825,878094911,base_imu_link,0.07697026129481722,0.0779615374060047,-0.67071719283561,0.733577551998573,0.0025,0.0,0.0,0.0,0.0025,0.0,0.0,0.0,0.0025,0.01,-0.05,-0.01,0.02,0.0,0.0,0.0,0.02,0.0,0.0,0.0,0.02,-2.1833671875,0.08618554687499999,9.59532421875,0.04,0.0,0.0,0.0,0.04,0.0,0.0,0.0,0.04
1614383825.899487,27,1614383825,898060083,base_imu_link,0.07703427771966043,0.07790300599239987,-0.6707239937092879,0.7335708322828967,0.0025,0.0,0.0,0.0,0.0025,0.0,0.0,0.0,0.0025,0.01,-0.05,-0.01,0.02,0.0,0.0,0.0,0.02,0.0,0.0,0.0,0.02,-2.188346796875,0.076609375,9.599920781249999,0.04,0.0,0.0,0.0,0.04,0.0,0.0,0.0,0.04
1614383825.918937,28,1614383825,918064117,base_imu_link,0.07707233320708966,0.07798725821596064,-0.6705257580779085,0.7337390890255328,0.0025,0.0,0.0,0.0,0.0025,0.0,0.0,0.0,0.0025,0.01,-0.05,-0.01,0.02,0.0,0.0,0.0,0.02,0.0,0.0,0.0,0.02,-2.1833671875,0.0720128125,9.604900390625,0.04,0.0,0.0,0.0,0.04,0.0,0.0,0.0,0.04
1614383825.939188,29,1614383825,938241004,base_imu_link,0.07703554052065197,0.07801888660718802,-0.6707750346029044,0.7335117120964998,0.0025,0.0,0.0,0.0,0.0025,0.0,0.0,0.0,0.0025,0.01,-0.05,-0.01,0.02,0.0,0.0,0.0,0.02,0.0,0.0,0.0,0.02,-2.1833671875,0.08120593749999999,9.599920781249999,0.04,0.0,0.0,0.0,0.04,0.0,0.0,0.0,0.04
1614383825.958816,30,1614383825,958038091,base_imu_link,0.07700830209893084,0.07804577232992237,-0.670518949852592,0.7337458120615362,0.0025,0.0,0.0,0.0,0.0025,0.0,0.0,0.0,0.0025,0.01,-0.05,-0.01,0.02,0.0,0.0,0.0,0.02,0.0,0.0,0.0,0.02,-2.1833671875,0.076609375,9.59072765625,0.04,0.0,0.0,0.0,0.04,0.0,0.0,0.0,0.04
1614383825.979169,31,1614383825,978254079,base_imu_link,0.07698786712471506,0.07806593038145057,-0.6703268326720664,0.7339213283650377,0.0025,0.0,0.0,0.0,0.0025,0.0,0.0,0.0,0.0025,0.01,-0.05,-0.01,0.02,0.0,0.0,0.0,0.02,0.0,0.0,0.0,0.02,-2.173791015625,0.0720128125,9.59532421875,0.04,0.0,0.0,0.0,0.04,0.0,0.0,0.0,0.04
1614383825.999141,32,1614383825,998262882,base_imu_link,0.07694304289572042,0.07798840034548492,-0.6704610851063605,0.7338116317690128,0.0025,0.0,0.0,0.0,0.0025,0.0,0.0,0.0,0.0025,0.01,-0.05,-0.01,0.02,0.0,0.0,0.0,0.02,0.0,0.0,0.0,0.02,-2.173791015625,0.076609375,9.59532421875,0.04,0.0,0.0,0.0,0.04,0.0,0.0,0.0,0.04
1614383826.0190701,33,1614383826,18259048,base_imu_link,0.07694984837455635,0.07798168550136046,-0.6705251196986718,0.7337531202077315,0.0025,0.0,0.0,0.0,0.0025,0.0,0.0,0.0,0.0025,0.01,-0.05,-0.01,0.02,0.0,0.0,0.0,0.02,0.0,0.0,0.0,0.02,-2.1833671875,0.08618554687499999,9.59072765625,0.04,0.0,0.0,0.0,0.04,0.0,0.0,0.0,0.04
1614383826.0391257,34,1614383826,38238048,base_imu_link,0.07701388012069382,0.07792317084922212,-0.670531922331334,0.7337464022727501,0.0025,0.0,0.0,0.0,0.0025,0.0,0.0,0.0,0.0025,0.01,-0.05,-0.01,0.02,0.0,0.0,0.0,0.02,0.0,0.0,0.0,0.02,-2.1833671875,0.067033203125,9.585748046874999,0.04,0.0,0.0,0.0,0.04,0.0,0.0,0.0,0.04
1614383826.0590985,35,1614383826,58140039,base_imu_link,0.07700830209893084,0.07804577232992237,-0.670518949852592,0.7337458120615362,0.0025,0.0,0.0,0.0,0.0025,0.0,0.0,0.0,0.0025,0.01,-0.05,-0.01,0.02,0.0,0.0,0.0,0.02,0.0,0.0,0.0,0.02,-2.1833671875,0.067033203125,9.59072765625,0.04,0.0,0.0,0.0,0.04,0.0,0.0,0.0,0.04
1614383826.0795166,36,1614383826,78712940,base_imu_link,0.07700830209893084,0.07804577232992237,-0.670518949852592,0.7337458120615362,0.0025,0.0,0.0,0.0,0.0025,0.0,0.0,0.0,0.0025,0.01,-0.05,-0.01,0.02,0.0,0.0,0.0,0.02,0.0,0.0,0.0,0.02,-2.1833671875,0.08618554687499999,9.59532421875,0.04,0.0,0.0,0.0,0.04,0.0,0.0,0.0,0.04
1614383826.0992992,37,1614383826,98551034,base_imu_link,0.07700830209893084,0.07804577232992237,-0.670518949852592,0.7337458120615362,0.0025,0.0,0.0,0.0,0.0025,0.0,0.0,0.0,0.0025,0.01,-0.05,-0.01,0.02,0.0,0.0,0.0,0.02,0.0,0.0,0.0,0.02,-2.1833671875,0.08618554687499999,9.59532421875,0.04,0.0,0.0,0.0,0.04,0.0,0.0,0.0,0.04
1614383826.119267,38,1614383826,118506908,base_imu_link,0.07709955119963123,0.07796035014571842,-0.6707818404810237,0.7335049866843871,0.0025,0.0,0.0,0.0,0.0025,0.0,0.0,0.0,0.0025,0.01,-0.05,-0.01,0.02,0.0,0.0,0.0,0.02,0.0,0.0,0.0,0.02,-2.178770625,0.0720128125,9.59532421875,0.04,0.0,0.0,0.0,0.04,0.0,0.0,0.0,0.04
1614383826.139238,39,1614383826,138515949,base_imu_link,0.07708594337744651,0.07797380536844849,-0.6706538094941077,0.7336220490286627,0.0025,0.0,0.0,0.0,0.0025,0.0,0.0,0.0,0.0025,0.01,-0.05,-0.01,0.02,0.0,0.0,0.0,0.02,0.0,0.0,0.0,0.02,-2.173791015625,0.08120593749999999,9.585748046874999,0.04,0.0,0.0,0.0,0.04,0.0,0.0,0.0,0.04
1614383826.1592038,40,1614383826,158595085,base_imu_link,0.07698667511139408,0.07795004901688204,-0.6702757556735085,0.7339804173612983,0.0025,0.0,0.0,0.0,0.0025,0.0,0.0,0.0,0.0025,0.01,-0.05,-0.01,0.02,0.0,0.0,0.0,0.02,0.0,0.0,0.0,0.02,-2.16421484375,0.08618554687499999,9.585748046874999,0.04,0.0,0.0,0.0,0.04,0.0,0.0,0.0,0.04
1614383826.1793609,41,1614383826,178611040,base_imu_link,0.07705072669280982,0.07789155612598052,-0.670282555546316,0.7339736962117122,0.0025,0.0,0.0,0.0,0.0025,0.0,0.0,0.0,0.0025,0.01,-0.05,-0.01,0.02,0.0,0.0,0.0,0.02,0.0,0.0,0.0,0.02,-2.173791015625,0.0720128125,9.585748046874999,0.04,0.0,0.0,0.0,0.04,0.0,0.0,0.0,0.04
1614383826.1993794,42,1614383826,198662042,base_imu_link,0.07693504035058073,0.07787922710417775,-0.670345962229528,0.7339292312440474,0.0025,0.0,0.0,0.0,0.0025,0.0,0.0,0.0,0.0025,0.01,-0.05,-0.01,0.02,0.0,0.0,0.0,0.02,0.0,0.0,0.0,0.02,-2.16421484375,0.0720128125,9.59072765625,0.04,0.0,0.0,0.0,0.04,0.0,0.0,0.0,0.04
1614383826.219753,43,1614383826,218714952,base_imu_link,0.07689018300210752,0.07780170456649414,-0.6704802002378873,0.733819525233155,0.0025,0.0,0.0,0.0,0.0025,0.0,0.0,0.0,0.0025,0.01,-0.05,-0.01,0.02,0.0,0.0,0.0,0.02,0.0,0.0,0.0,0.02,-2.173791015625,0.090782109375,9.585748046874999,0.04,0.0,0.0,0.0,0.04,0.0,0.0,0.0,0.04
1614383826.2396355,44,1614383826,238820075,base_imu_link,0.07694743587687529,0.07774990906157983,-0.6704229473631194,0.7338713207380693,0.0025,0.0,0.0,0.0,0.0025,0.0,0.0,0.0,0.0025,0.01,-0.05,-0.01,0.02,0.0,0.0,0.0,0.02,0.0,0.0,0.0,0.02,-2.169194453125,0.0720128125,9.59532421875,0.04,0.0,0.0,0.0,0.04,0.0,0.0,0.0,0.04
1614383826.2593834,45,1614383826,258651018,base_imu_link,0.07694743587687529,0.07774990906157983,-0.6704229473631194,0.7338713207380693,0.0025,0.0,0.0,0.0,0.0025,0.0,0.0,0.0,0.0025,0.01,-0.05,-0.01,0.02,0.0,0.0,0.0,0.02,0.0,0.0,0.0,0.02,-2.169194453125,0.076609375,9.59532421875,0.04,0.0,0.0,0.0,0.04,0.0,0.0,0.0,0.04
1614383826.2796898,46,1614383826,278899908,base_imu_link,0.07682494957181146,0.0777443148576681,-0.6704223075113522,0.7338853304309566,0.0025,0.0,0.0,0.0,0.0025,0.0,0.0,0.0,0.0025,0.01,-0.05,-0.01,0.02,0.0,0.0,0.0,0.02,0.0,0.0,0.0,0.02,-2.173791015625,0.08618554687499999,9.585748046874999,0.04,0.0,0.0,0.0,0.04,0.0,0.0,0.0,0.04
1614383826.2997842,47,1614383826,298924922,base_imu_link,0.07689577192892401,0.07767909905227298,-0.670493129868465,0.7338201146255613,0.0025,0.0,0.0,0.0,0.0025,0.0,0.0,0.0,0.0025,0.01,-0.05,-0.01,0.02,0.0,0.0,0.0,0.02,0.0,0.0,0.0,0.02,-2.169194453125,0.08120593749999999,9.59072765625,0.04,0.0,0.0,0.0,0.04,0.0,0.0,0.0,0.04
1614383826.3197145,48,1614383826,319020032,base_imu_link,0.07688899285594299,0.0776858091784895,-0.6704290894299095,0.7338786233949482,0.0025,0.0,0.0,0.0,0.0025,0.0,0.0,0.0,0.0025,0.01,-0.05,-0.01,0.02,0.0,0.0,0.0,0.02,0.0,0.0,0.0,0.02,-2.178770625,0.08120593749999999,9.59072765625,0.04,0.0,0.0,0.0,0.04,0.0,0.0,0.0,0.04
1614383826.341544,49,1614383826,340652942,base_imu_link,0.0768754329534031,0.07769922765603762,-0.6703009932364584,0.7339956241668605,0.0025,0.0,0.0,0.0,0.0025,0.0,0.0,0.0,0.0025,0.01,-0.05,-0.01,0.02,0.0,0.0,0.0,0.02,0.0,0.0,0.0,0.02,-2.173791015625,0.08618554687499999,9.59532421875,0.04,0.0,0.0,0.0,0.04,0.0,0.0,0.0,0.04
1614383826.3596864,50,1614383826,358993053,base_imu_link,0.07692593382633102,0.07765415985462504,-0.6701796557801546,0.7341058923211369,0.0025,0.0,0.0,0.0,0.0025,0.0,0.0,0.0,0.0025,0.01,-0.05,-0.01,0.02,0.0,0.0,0.0,0.02,0.0,0.0,0.0,0.02,-2.178770625,0.08618554687499999,9.59532421875,0.04,0.0,0.0,0.0,0.04,0.0,0.0,0.0,0.04
1614383826.379923,51,1614383826,379167079,base_imu_link,0.07689204348541687,0.07768771773206803,-0.669859277871963,0.7343982434694893,0.0025,0.0,0.0,0.0,0.0025,0.0,0.0,0.0,0.0025,0.01,-0.05,-0.01,0.02,0.0,0.0,0.0,0.02,0.0,0.0,0.0,0.02,-2.178770625,0.0720128125,9.59532421875,0.04,0.0,0.0,0.0,0.04,0.0,0.0,0.0,0.04
1614383826.399879,52,1614383826,399091005,base_imu_link,0.0769135037554427,0.07778347631194735,-0.6701026717829263,0.7341637780647271,0.0025,0.0,0.0,0.0,0.0025,0.0,0.0,0.0,0.0025,0.01,-0.05,-0.01,0.02,0.0,0.0,0.0,0.02,0.0,0.0,0.0,0.02,-2.178770625,0.08120593749999999,9.59532421875,0.04,0.0,0.0,0.0,0.04,0.0,0.0,0.0,0.04
1614383826.4197989,53,1614383826,419099092,base_imu_link,0.07689992680639904,0.07779689906596689,-0.6699745258255684,0.7342807218616699,0.0025,0.0,0.0,0.0,0.0025,0.0,0.0,0.0,0.0025,0.01,-0.05,-0.01,0.02,0.0,0.0,0.0,0.02,0.0,0.0,0.0,0.02,-2.178770625,0.08618554687499999,9.59072765625,0.04,0.0,0.0,0.0,0.04,0.0,0.0,0.0,0.04
1614383826.4402654,54,1614383826,439202070,base_imu_link,0.07697078825959981,0.07773171579048577,-0.6700453872787691,0.7342155385861887,0.0025,0.0,0.0,0.0,0.0025,0.0,0.0,0.0,0.0025,0.01,-0.05,-0.01,0.02,0.0,0.0,0.0,0.02,0.0,0.0,0.0,0.02,-2.178770625,0.067033203125,9.59532421875,0.04,0.0,0.0,0.0,0.04,0.0,0.0,0.0,0.04
1614383826.4599588,55,1614383826,459146976,base_imu_link,0.07692029135139562,0.07777676404637945,-0.6701667371071637,0.7341052977795677,0.0025,0.0,0.0,0.0,0.0025,0.0,0.0,0.0,0.0025,0.01,-0.05,-0.01,0.02,0.0,0.0,0.0,0.02,0.0,0.0,0.0,0.02,-2.178770625,0.067033203125,9.59072765625,0.04,0.0,0.0,0.0,0.04,0.0,0.0,0.0,0.04
1614383826.4806473,56,1614383826,479752063,base_imu_link,0.07686302040007427,0.07782853956311518,-0.670224008058485,0.7340535222628322,0.0025,0.0,0.0,0.0,0.0025,0.0,0.0,0.0,0.0025,0.01,-0.05,-0.01,0.02,0.0,0.0,0.0,0.02,0.0,0.0,0.0,0.02,-2.178770625,0.08120593749999999,9.5807684375,0.04,0.0,0.0,0.0,0.04,0.0,0.0,0.0,0.04
1614383826.5020056,57,1614383826,501312971,base_imu_link,0.07690785068534461,0.07790607775424402,-0.6700897317636829,0.7341631814091375,0.0025,0.0,0.0,0.0,0.0025,0.0,0.0,0.0,0.0025,0.01,-0.05,-0.01,0.02,0.0,0.0,0.0,0.02,0.0,0.0,0.0,0.02,-2.178770625,0.0720128125,9.585748046874999,0.04,0.0,0.0,0.0,0.04,0.0,0.0,0.0,0.04
1614383826.5205069,58,1614383826,519597053,base_imu_link,0.07691464898031325,0.07789936598153271,-0.6701537970359015,0.73410470225321,0.0025,0.0,0.0,0.0,0.0025,0.0,0.0,0.0,0.0025,0.01,-0.05,-0.01,0.02,0.0,0.0,0.0,0.02,0.0,0.0,0.0,0.02,-2.1833671875,0.0720128125,9.59072765625,0.04,0.0,0.0,0.0,0.04,0.0,0.0,0.0,0.04
1614383826.5401733,59,1614383826,539246082,base_imu_link,0.07685058596698183,0.07795784763610479,-0.6701469964820457,0.7341114115272765,0.0025,0.0,0.0,0.0,0.0025,0.0,0.0,0.0,0.0025,0.01,-0.05,-0.01,0.02,0.0,0.0,0.0,0.02,0.0,0.0,0.0,0.02,-2.1833671875,0.076609375,9.585748046874999,0.04,0.0,0.0,0.0,0.04,0.0,0.0,0.0,0.04
1614383826.5602643,60,1614383826,559592008,base_imu_link,0.0769362368309297,0.07799511459569375,-0.6703970454081962,0.733870137741999,0.0025,0.0,0.0,0.0,0.0025,0.0,0.0,0.0,0.0025,0.01,-0.05,-0.01,0.02,0.0,0.0,0.0,0.02,0.0,0.0,0.0,0.02,-2.173791015625,0.08120593749999999,9.5807684375,0.04,0.0,0.0,0.0,0.04,0.0,0.0,0.0,0.04
1614383826.5803044,61,1614383826,579629898,base_imu_link,0.0769362368309297,0.07799511459569375,-0.6703970454081962,0.733870137741999,0.0025,0.0,0.0,0.0,0.0025,0.0,0.0,0.0,0.0025,0.01,-0.05,-0.01,0.02,0.0,0.0,0.0,0.02,0.0,0.0,0.0,0.02,-2.178770625,0.076609375,9.59532421875,0.04,0.0,0.0,0.0,0.04,0.0,0.0,0.0,0.04
1614383826.60045,62,1614383826,599687099,base_imu_link,0.07692262294369126,0.07800854131415999,-0.6702689506962591,0.7339871329213038,0.0025,0.0,0.0,0.0,0.0025,0.0,0.0,0.0,0.0025,0.01,-0.05,-0.01,0.02,0.0,0.0,0.0,0.02,0.0,0.0,0.0,0.02,-2.173791015625,0.076609375,9.599920781249999,0.04,0.0,0.0,0.0,0.04,0.0,0.0,0.0,0.04
1614383826.6201155,63,1614383826,619492053,base_imu_link,0.07687779370680416,0.07793101697204172,-0.6704032088733045,0.7338774413761837,0.0025,0.0,0.0,0.0,0.0025,0.0,0.0,0.0,0.0025,0.01,-0.05,-0.01,0.02,0.0,0.0,0.0,0.02,0.0,0.0,0.0,0.02,-2.1833671875,0.090782109375,9.59532421875,0.04,0.0,0.0,0.0,0.04,0.0,0.0,0.0,0.04
1614383826.6405995,64,1614383826,639614105,base_imu_link,0.07700027878882526,0.07793661112009456,-0.6704038492132557,0.7338634209944033,0.0025,0.0,0.0,0.0,0.0025,0.0,0.0,0.0,0.0025,0.01,-0.05,-0.01,0.02,0.0,0.0,0.0,0.02,0.0,0.0,0.0,0.02,-2.1833671875,0.08120593749999999,9.59532421875,0.04,0.0,0.0,0.0,0.04,0.0,0.0,0.0,0.04
1614383826.6605217,65,1614383826,659621953,base_imu_link,0.07701388012069382,0.07792317084922212,-0.670531922331334,0.7337464022727501,0.0025,0.0,0.0,0.0,0.0025,0.0,0.0,0.0,0.0025,0.01,-0.05,-0.01,0.02,0.0,0.0,0.0,0.02,0.0,0.0,0.0,0.02,-2.1833671875,0.076609375,9.59532421875,0.04,0.0,0.0,0.0,0.04,0.0,0.0,0.0,0.04
1614383826.680638,66,1614383826,679999113,base_imu_link,0.07703427771966043,0.07790300599239987,-0.6707239937092879,0.7335708322828967,0.0025,0.0,0.0,0.0,0.0025,0.0,0.0,0.0,0.0025,0.01,-0.05,-0.01,0.02,0.0,0.0,0.0,0.02,0.0,0.0,0.0,0.02,-2.173791015625,0.090782109375,9.5807684375,0.04,0.0,0.0,0.0,0.04,0.0,0.0,0.0,0.04
1614383826.7003179,67,1614383826,699651956,base_imu_link,0.07711867055113734,0.07782428703201844,-0.670922813121454,0.7333884849338566,0.0025,0.0,0.0,0.0,0.0025,0.0,0.0,0.0,0.0025,0.01,-0.05,-0.01,0.02,0.0,0.0,0.0,0.02,0.0,0.0,0.0,0.02,-2.178770625,0.076609375,9.585748046874999,0.04,0.0,0.0,0.0,0.04,0.0,0.0,0.0,0.04
1614383826.7203555,68,1614383826,719644069,base_imu_link,0.07708470595989354,0.0778579289905248,-0.6706027481705337,0.7336811604140526,0.0025,0.0,0.0,0.0,0.0025,0.0,0.0,0.0,0.0025,0.01,-0.05,-0.01,0.02,0.0,0.0,0.0,0.02,0.0,0.0,0.0,0.02,-2.178770625,0.067033203125,9.59072765625,0.04,0.0,0.0,0.0,0.04,0.0,0.0,0.0,0.04
1614383826.7414267,69,1614383826,739761114,base_imu_link,0.07704107574608585,0.07789628318686022,-0.6707880072868787,0.7335122977794285,0.0025,0.0,0.0,0.0,0.0025,0.0,0.0,0.0,0.0025,0.01,-0.05,-0.01,0.02,0.0,0.0,0.0,0.02,0.0,0.0,0.0,0.02,-2.178770625,0.09576171874999999,9.585748046874999,0.04,0.0,0.0,0.0,0.04,0.0,0.0,0.0,0.04
1614383826.7602172,70,1614383826,759614944,base_imu_link,0.07707111601379865,0.07787138162383174,-0.6704746864382292,0.7337981914981403,0.0025,0.0,0.0,0.0,0.0025,0.0,0.0,0.0,0.0025,0.01,-0.05,-0.01,0.02,0.0,0.0,0.0,0.02,0.0,0.0,0.0,0.02,-2.1833671875,0.090782109375,9.585748046874999,0.04,0.0,0.0,0.0,0.04,0.0,0.0,0.0,0.04
1614383826.780954,71,1614383826,780184984,base_imu_link,0.07713515169268642,0.07781287137324565,-0.6704814794452542,0.7337914629803894,0.0025,0.0,0.0,0.0,0.0025,0.0,0.0,0.0,0.0025,0.01,-0.05,-0.01,0.02,0.0,0.0,0.0,0.02,0.0,0.0,0.0,0.02,-2.178770625,0.08120593749999999,9.59072765625,0.04,0.0,0.0,0.0,0.04,0.0,0.0,0.0,0.04
1614383826.8006568,72,1614383826,799866914,base_imu_link,0.07714873142584086,0.07779940756449556,-0.6706095400031074,0.7336744307108009,0.0025,0.0,0.0,0.0,0.0025,0.0,0.0,0.0,0.0025,0.01,-0.05,-0.01,0.02,0.0,0.0,0.0,0.02,0.0,0.0,0.0,0.02,-2.1833671875,0.090782109375,9.59072765625,0.04,0.0,0.0,0.0,0.04,0.0,0.0,0.0,0.04
1614383826.8210883,73,1614383826,820297002,base_imu_link,0.07721398340491815,0.07785675301026664,-0.6706674082757368,0.7336085838198387,0.0025,0.0,0.0,0.0,0.0025,0.0,0.0,0.0,0.0025,0.01,-0.05,-0.01,0.02,0.0,0.0,0.0,0.02,0.0,0.0,0.0,0.02,-2.1833671875,0.08618554687499999,9.59532421875,0.04,0.0,0.0,0.0,0.04,0.0,0.0,0.0,0.04
1614383826.8407886,74,1614383826,840064048,base_imu_link,0.07721398340491815,0.07785675301026664,-0.6706674082757368,0.7336085838198387,0.0025,0.0,0.0,0.0,0.0025,0.0,0.0,0.0,0.0025,0.01,-0.05,-0.01,0.02,0.0,0.0,0.0,0.02,0.0,0.0,0.0,0.02,-2.1833671875,0.067033203125,9.59532421875,0.04,0.0,0.0,0.0,0.04,0.0,0.0,0.0,0.04
1614383826.861539,75,1614383826,860109090,base_imu_link,0.07714316400036773,0.0779220117937695,-0.6705965888711864,0.7336738426033417,0.0025,0.0,0.0,0.0,0.0025,0.0,0.0,0.0,0.0025,0.01,-0.05,-0.01,0.02,0.0,0.0,0.0,0.02,0.0,0.0,0.0,0.02,-2.173791015625,0.0720128125,9.59072765625,0.04,0.0,0.0,0.0,0.04,0.0,0.0,0.0,0.04
1614383826.8813436,76,1614383826,880089998,base_imu_link,0.07714316400036773,0.0779220117937695,-0.6705965888711864,0.7336738426033417,0.0025,0.0,0.0,0.0,0.0025,0.0,0.0,0.0,0.0025,0.01,-0.05,-0.01,0.02,0.0,0.0,0.0,0.02,0.0,0.0,0.0,0.02,-2.173791015625,0.090782109375,9.585748046874999,0.04,0.0,0.0,0.0,0.04,0.0,0.0,0.0,0.04
1614383826.9008563,77,1614383826,900080919,base_imu_link,0.07720039366210152,0.07787022820676202,-0.6705393592094527,0.7337256261903491,0.0025,0.0,0.0,0.0,0.0025,0.0,0.0,0.0,0.0025,0.01,-0.05,-0.01,0.02,0.0,0.0,0.0,0.02,0.0,0.0,0.0,0.02,-2.173791015625,0.08618554687499999,9.59072765625,0.04,0.0,0.0,0.0,0.04,0.0,0.0,0.0,0.04
1614383826.9210472,78,1614383826,920150041,base_imu_link,0.07713515169268642,0.07781287137324565,-0.6704814794452542,0.7337914629803894,0.0025,0.0,0.0,0.0,0.0025,0.0,0.0,0.0,0.0025,0.01,-0.05,-0.01,0.02,0.0,0.0,0.0,0.02,0.0,0.0,0.0,0.02,-2.173791015625,0.076609375,9.5807684375,0.04,0.0,0.0,0.0,0.04,0.0,0.0,0.0,0.04
1614383826.9412262,79,1614383826,940340042,base_imu_link,0.07714873142584086,0.07779940756449556,-0.6706095400031074,0.7336744307108009,0.0025,0.0,0.0,0.0,0.0025,0.0,0.0,0.0,0.0025,0.01,-0.05,-0.01,0.02,0.0,0.0,0.0,0.02,0.0,0.0,0.0,0.02,-2.173791015625,0.08618554687499999,9.59072765625,0.04,0.0,0.0,0.0,0.04,0.0,0.0,0.0,0.04
1614383826.960937,80,1614383826,960156917,base_imu_link,0.07715552041116217,0.07779267477138035,-0.6706735626218022,0.7336159061949084,0.0025,0.0,0.0,0.0,0.0025,0.0,0.0,0.0,0.0025,0.01,-0.05,-0.01,0.02,0.0,0.0,0.0,0.02,0.0,0.0,0.0,0.02,-2.169194453125,0.08120593749999999,9.585748046874999,0.04,0.0,0.0,0.0,0.04,0.0,0.0,0.0,0.04
1614383826.981267,81,1614383826,980479001,base_imu_link,0.07711062185473015,0.07771513878141027,-0.6708077430518118,0.7335061561180638,0.0025,0.0,0.0,0.0,0.0025,0.0,0.0,0.0,0.0025,0.01,-0.05,-0.01,0.02,0.0,0.0,0.0,0.02,0.0,0.0,0.0,0.02,-2.178770625,0.067033203125,9.59532421875,0.04,0.0,0.0,0.0,0.04,0.0,0.0,0.0,0.04
1614383827.0008905,82,1614383827,179052,base_imu_link,0.07711867055113734,0.07782428703201844,-0.670922813121454,0.7333884849338566,0.0025,0.0,0.0,0.0,0.0025,0.0,0.0,0.0,0.0025,0.01,-0.05,-0.01,0.02,0.0,0.0,0.0,0.02,0.0,0.0,0.0,0.02,-2.1833671875,0.08120593749999999,9.59072765625,0.04,0.0,0.0,0.0,0.04,0.0,0.0,0.0,0.04
1614383827.021013,83,1614383827,20328044,base_imu_link,0.07711187880726621,0.07783101660925636,-0.6708588103480589,0.7334470312018244,0.0025,0.0,0.0,0.0,0.0025,0.0,0.0,0.0,0.0025,0.01,-0.05,-0.01,0.02,0.0,0.0,0.0,0.02,0.0,0.0,0.0,0.02,-2.178770625,0.090782109375,9.5807684375,0.04,0.0,0.0,0.0,0.04,0.0,0.0,0.0,0.04
1614383827.0417395,84,1614383827,40843009,base_imu_link,0.07715552041116217,0.07779267477138035,-0.6706735626218022,0.7336159061949084,0.0025,0.0,0.0,0.0,0.0025,0.0,0.0,0.0,0.0025,0.01,-0.05,-0.01,0.02,0.0,0.0,0.0,0.02,0.0,0.0,0.0,0.02,-2.173791015625,0.0720128125,9.59532421875,0.04,0.0,0.0,0.0,0.04,0.0,0.0,0.0,0.04
1614383827.061758,85,1614383827,60573101,base_imu_link,0.07711867055113734,0.07782428703201844,-0.670922813121454,0.7333884849338566,0.0025,0.0,0.0,0.0,0.0025,0.0,0.0,0.0,0.0025,0.01,-0.05,-0.01,0.02,0.0,0.0,0.0,0.02,0.0,0.0,0.0,0.02,-2.173791015625,0.0720128125,9.585748046874999,0.04,0.0,0.0,0.0,0.04,0.0,0.0,0.0,0.04
1614383827.0812087,86,1614383827,80563068,base_imu_link,0.07710508647615452,0.07783774559377722,-0.670794802465782,0.7335055718842739,0.0025,0.0,0.0,0.0,0.0025,0.0,0.0,0.0,0.0025,0.01,-0.05,-0.01,0.02,0.0,0.0,0.0,0.02,0.0,0.0,0.0,0.02,-2.178770625,0.090782109375,9.585748046874999,0.04,0.0,0.0,0.0,0.04,0.0,0.0,0.0,0.04
1614383827.101525,87,1614383827,100675106,base_imu_link,0.07717588384148194,0.07777247283768919,-0.6708655998311093,0.7334402991281858,0.0025,0.0,0.0,0.0,0.0025,0.0,0.0,0.0,0.0025,0.01,-0.05,-0.01,0.02,0.0,0.0,0.0,0.02,0.0,0.0,0.0,0.02,-2.16421484375,0.08618554687499999,9.59072765625,0.04,0.0,0.0,0.0,0.04,0.0,0.0,0.0,0.04
1614383827.121185,88,1614383827,120517969,base_imu_link,0.07711740348635794,0.07770840931430337,-0.6708717509850234,0.7334476143063331,0.0025,0.0,0.0,0.0,0.0025,0.0,0.0,0.0,0.0025,0.01,-0.05,-0.01,0.02,0.0,0.0,0.0,0.02,0.0,0.0,0.0,0.02,-2.173791015625,0.076609375,9.59072765625,0.04,0.0,0.0,0.0,0.04,0.0,0.0,0.0,0.04
1614383827.1421545,89,1614383827,141320943,base_imu_link,0.07704661107365637,0.0777736775042393,-0.6708009585723219,0.7335128824962691,0.0025,0.0,0.0,0.0,0.0025,0.0,0.0,0.0,0.0025,0.01,-0.05,-0.01,0.02,0.0,0.0,0.0,0.02,0.0,0.0,0.0,0.02,-2.173791015625,0.08618554687499999,9.59072765625,0.04,0.0,0.0,0.0,0.04,0.0,0.0,0.0,0.04
1614383827.1619577,90,1614383827,160515069,base_imu_link,0.07711740348635794,0.07770840931430337,-0.6708717509850234,0.7334476143063331,0.0025,0.0,0.0,0.0,0.0025,0.0,0.0,0.0,0.0025,0.01,-0.05,-0.01,0.02,0.0,0.0,0.0,0.02,0.0,0.0,0.0,0.02,-2.173791015625,0.0720128125,9.585748046874999,0.04,0.0,0.0,0.0,0.04,0.0,0.0,0.0,0.04
1614383827.1815677,91,1614383827,180732965,base_imu_link,0.07706018396753879,0.07776022914933933,-0.6709289705038426,0.7333957944712971,0.0025,0.0,0.0,0.0,0.0025,0.0,0.0,0.0,0.0025,0.01,-0.05,-0.01,0.02,0.0,0.0,0.0,0.02,0.0,0.0,0.0,0.02,-2.178770625,0.05286046874999999,9.700662109375,0.04,0.0,0.0,0.0,0.04,0.0,0.0,0.0,0.04
1614383827.2015324,92,1614383827,200817108,base_imu_link,0.0764832516421042,0.07722888806632626,-0.6711054230104526,0.7333508861876767,0.0025,0.0,0.0,0.0,0.0025,0.0,0.0,0.0,0.0025,0.01,-0.12,-0.01,0.02,0.0,0.0,0.0,0.02,0.0,0.0,0.0,0.02,-1.9535390624999998,-0.201099609375,10.567114140625,0.04,0.0,0.0,0.0,0.04,0.0,0.0,0.0,0.04
1614383827.2217596,93,1614383827,221016883,base_imu_link,0.07277687821467786,0.07556174367172307,-0.6714953633146563,0.7335447675074319,0.0025,0.0,0.0,0.0,0.0025,0.0,0.0,0.0,0.0025,-0.03,-0.25,-0.01,0.02,0.0,0.0,0.0,0.02,0.0,0.0,0.0,0.02,-1.4747304687499998,0.483788203125,10.6870078125,0.04,0.0,0.0,0.0,0.04,0.0,0.0,0.0,0.04
1614383827.2424848,94,1614383827,241692066,base_imu_link,0.07158571553821329,0.07182769207932288,-0.6717932283661092,0.7337643533879801,0.0025,0.0,0.0,0.0,0.0025,0.0,0.0,0.0,0.0025,-0.01,-0.06,-0.03,0.02,0.0,0.0,0.0,0.02,0.0,0.0,0.0,0.02,0.8189542187499999,-0.21565539062499997,9.66733703125,0.04,0.0,0.0,0.0,0.04,0.0,0.0,0.0,0.04
1614383827.261669,95,1614383827,260864019,base_imu_link,0.06089425011203142,0.06241549095298679,-0.6727475139064735,0.734715577162381,0.0025,0.0,0.0,0.0,0.0025,0.0,0.0,0.0,0.0025,0.01,-0.04,-0.02,0.02,0.0,0.0,0.0,0.02,0.0,0.0,0.0,0.02,-2.97320984375,0.45008007812499995,9.0445028125,0.04,0.0,0.0,0.0,0.04,0.0,0.0,0.0,0.04
1614383827.2819598,96,1614383827,281229972,base_imu_link,0.06550936333824824,0.06537702113500854,-0.6726557741905129,0.7341447935323736,0.0025,0.0,0.0,0.0,0.0025,0.0,0.0,0.0,0.0025,-0.05,-0.17,-0.01,0.02,0.0,0.0,0.0,0.02,0.0,0.0,0.0,0.02,-0.6082784375,0.14364257812499998,8.972873046875,0.04,0.0,0.0,0.0,0.04,0.0,0.0,0.0,0.04
1614383827.3021946,97,1614383827,301095008,base_imu_link,0.0628587948181263,0.06203298161099701,-0.6725404862964482,0.734772056762231,0.0025,0.0,0.0,0.0,0.0025,0.0,0.0,0.0,0.0025,0.01,0.01,-0.02,0.02,0.0,0.0,0.0,0.02,0.0,0.0,0.0,0.02,-2.5568378906249998,-0.090782109375,9.394224609375,0.04,0.0,0.0,0.0,0.04,0.0,0.0,0.0,0.04
1614383827.3217585,98,1614383827,321103096,base_imu_link,0.06469963638723435,0.06588661871694977,-0.6720320695288521,0.7347420010113584,0.0025,0.0,0.0,0.0,0.0025,0.0,0.0,0.0,0.0025,-0.02,-0.07,-0.01,0.02,0.0,0.0,0.0,0.02,0.0,0.0,0.0,0.02,-2.6859246875,0.090782109375,9.78684765625,0.04,0.0,0.0,0.0,0.04,0.0,0.0,0.0,0.04
1614383827.3431458,99,1614383827,342417001,base_imu_link,0.06595361186729971,0.06733243505267104,-0.671531244162779,0.7349573133078721,0.0025,0.0,0.0,0.0,0.0025,0.0,0.0,0.0,0.0025,0.0,-0.25,-0.02,0.02,0.0,0.0,0.0,0.02,0.0,0.0,0.0,0.02,-2.7962421875,0.19152343749999998,10.950161015625,0.04,0.0,0.0,0.0,0.04,0.0,0.0,0.0,0.04
1614383827.3621666,100,1614383827,361319065,base_imu_link,0.06647998769389198,0.06767604483237906,-0.6713773537065444,0.7350189202476786,0.0025,0.0,0.0,0.0,0.0025,0.0,0.0,0.0,0.0025,-0.02,-0.22,-0.01,0.02,0.0,0.0,0.0,0.02,0.0,0.0,0.0,0.02,2.1500421093749997,0.253960078125,9.116515625,0.04,0.0,0.0,0.0,0.04,0.0,0.0,0.0,0.04
1614383827.3826997,101,1614383827,381854057,base_imu_link,0.057000134520957355,0.05537894782836709,-0.6721295941507656,0.7361562099641238,0.0025,0.0,0.0,0.0,0.0025,0.0,0.0,0.0,0.0025,0.05,0.24,-0.03,0.02,0.0,0.0,0.0,0.02,0.0,0.0,0.0,0.02,-2.877448125,-0.201099609375,9.101959843749999,0.04,0.0,0.0,0.0,0.04,0.0,0.0,0.0,0.04
1614383827.4025004,102,1614383827,401674985,base_imu_link,0.05909231527047568,0.06017904292019388,-0.6722182788490525,0.7355332532594305,0.0025,0.0,0.0,0.0,0.0025,0.0,0.0,0.0,0.0025,-0.02,-0.22,-0.02,0.02,0.0,0.0,0.0,0.02,0.0,0.0,0.0,0.02,-3.7347070312499997,0.8381065624999999,9.547443359374999,0.04,0.0,0.0,0.0,0.04,0.0,0.0,0.0,0.04
1614383827.4227917,103,1614383827,421974897,base_imu_link,0.06697112570827828,0.06428957604156336,-0.6713009417340522,0.7353480566104305,0.0025,0.0,0.0,0.0,0.0025,0.0,0.0,0.0,0.0025,-0.05,-0.17,-0.03,0.02,0.0,0.0,0.0,0.02,0.0,0.0,0.0,0.02,1.288186640625,-0.41177539062499996,9.3034425,0.04,0.0,0.0,0.0,0.04,0.0,0.0,0.0,0.04
1614383827.4425957,104,1614383827,441792011,base_imu_link,0.05660981258378867,0.05573580680391364,-0.6720362587656129,0.7362446032830825,0.0025,0.0,0.0,0.0,0.0025,0.0,0.0,0.0,0.0025,0.08,0.06,-0.03,0.02,0.0,0.0,0.0,0.02,0.0,0.0,0.0,0.02,-4.34758203125,0.392623046875,10.89768359375,0.04,0.0,0.0,0.0,0.04,0.0,0.0,0.0,0.04
1614383827.462304,105,1614383827,461579084,base_imu_link,0.059260788231724794,0.05779392423056989,-0.6715799342277322,0.7362937003960178,0.0025,0.0,0.0,0.0,0.0025,0.0,0.0,0.0,0.0025,-0.03,-0.51,0.02,0.02,0.0,0.0,0.0,0.02,0.0,0.0,0.0,0.02,1.288186640625,0.028728515625,8.728872187499999,0.04,0.0,0.0,0.0,0.04,0.0,0.0,0.0,0.04
1614383827.4825761,106,1614383827,481690883,base_imu_link,0.05367115316421087,0.051943407665808766,-0.6717783633195852,0.736977014766232,0.0025,0.0,0.0,0.0,0.0025,0.0,0.0,0.0,0.0025,0.01,0.29,-0.03,0.02,0.0,0.0,0.0,0.02,0.0,0.0,0.0,0.02,-1.24490234375,-1.082107421875,9.853880859375,0.04,0.0,0.0,0.0,0.04,0.0,0.0,0.0,0.04
1614383827.502744,107,1614383827,501698970,base_imu_link,0.04927574211107452,0.05535993801391339,-0.6716928992399965,0.7371131715096852,0.0025,0.0,0.0,0.0,0.0025,0.0,0.0,0.0,0.0025,0.04,0.04,-0.0,0.02,0.0,0.0,0.0,0.02,0.0,0.0,0.0,0.02,-3.4186933593749997,0.17237109374999998,9.37009265625,0.04,0.0,0.0,0.0,0.04,0.0,0.0,0.0,0.04
1614383827.521962,108,1614383827,521148920,base_imu_link,0.05602939653750381,0.06144628645625196,-0.6706869238310349,0.737064522824456,0.0025,0.0,0.0,0.0,0.0025,0.0,0.0,0.0,0.0025,0.01,-0.12,-0.03,0.02,0.0,0.0,0.0,0.02,0.0,0.0,0.0,0.02,-2.4323476562499997,0.11989367187499998,10.457179687499998,0.04,0.0,0.0,0.0,0.04,0.0,0.0,0.0,0.04
1614383827.54263,109,1614383827,542037963,base_imu_link,0.05645100513208787,0.061533540558512255,-0.6698523098489608,0.7377837016334277,0.0025,0.0,0.0,0.0,0.0025,0.0,0.0,0.0,0.0025,-0.01,-0.28,0.01,0.02,0.0,0.0,0.0,0.02,0.0,0.0,0.0,0.02,0.775669921875,-0.18654382812499998,8.98704578125,0.04,0.0,0.0,0.0,0.04,0.0,0.0,0.0,0.04
1614383827.5631905,110,1614383827,562465906,base_imu_link,0.05064463464852444,0.05670076299398436,-0.670128834990651,0.7383410383903162,0.0025,0.0,0.0,0.0,0.0025,0.0,0.0,0.0,0.0025,-0.01,0.22,-0.03,0.02,0.0,0.0,0.0,0.02,0.0,0.0,0.0,0.02,-1.671233515625,-0.8427031249999999,9.523311406249999,0.04,0.0,0.0,0.0,0.04,0.0,0.0,0.0,0.04
1614383827.582634,111,1614383827,581969976,base_imu_link,0.04823762815095524,0.06006342920397077,-0.6702937558630282,0.7380865779525222,0.0025,0.0,0.0,0.0,0.0025,0.0,0.0,0.0,0.0025,0.03,-0.05,-0.03,0.02,0.0,0.0,0.0,0.02,0.0,0.0,0.0,0.02,-4.031568359375,-0.06243664062499999,10.184067265625,0.04,0.0,0.0,0.0,0.04,0.0,0.0,0.0,0.04
1614383827.6024923,112,1614383827,601589918,base_imu_link,0.051990856297553824,0.06452371239801324,-0.6694975547765256,0.7381779362376517,0.0025,0.0,0.0,0.0,0.0025,0.0,0.0,0.0,0.0025,-0.02,-0.41,-0.01,0.02,0.0,0.0,0.0,0.02,0.0,0.0,0.0,0.02,-0.01915234375,0.0720128125,8.891284062499999,0.04,0.0,0.0,0.0,0.04,0.0,0.0,0.0,0.04
1614383827.6225762,113,1614383827,621934890,base_imu_link,0.05007628498038087,0.06144277491019963,-0.6693614445321374,0.7386964245667826,0.0025,0.0,0.0,0.0,0.0025,0.0,0.0,0.0,0.0025,0.01,0.23,-0.03,0.02,0.0,0.0,0.0,0.02,0.0,0.0,0.0,0.02,0.067033203125,-0.21067578124999997,9.925510625,0.04,0.0,0.0,0.0,0.04,0.0,0.0,0.0,0.04
1614383827.6434011,114,1614383827,642357110,base_imu_link,0.044787555759704965,0.056372369808387814,-0.6698554458678915,0.73899249821117,0.0025,0.0,0.0,0.0,0.0025,0.0,0.0,0.0,0.0025,0.03,0.07,-0.02,0.02,0.0,0.0,0.0,0.02,0.0,0.0,0.0,0.02,-5.137424687499999,0.407178828125,9.892185546875,0.04,0.0,0.0,0.0,0.04,0.0,0.0,0.0,0.04
1614383827.6630445,115,1614383827,662230014,base_imu_link,0.05278298055294752,0.06309952820314027,-0.6694351186231782,0.7383014482299622,0.0025,0.0,0.0,0.0,0.0025,0.0,0.0,0.0,0.0025,-0.04,-0.38,-0.04,0.02,0.0,0.0,0.0,0.02,0.0,0.0,0.0,0.02,-2.346162109375,0.75153796875,10.074132812499998,0.04,0.0,0.0,0.0,0.04,0.0,0.0,0.0,0.04
1614383827.6829853,116,1614383827,682193994,base_imu_link,0.0574847798884721,0.0628271061108479,-0.6688571119831237,0.7384974059321436,0.0025,0.0,0.0,0.0,0.0025,0.0,0.0,0.0,0.0025,-0.01,-0.03,-0.02,0.02,0.0,0.0,0.0,0.02,0.0,0.0,0.0,0.02,1.6949824218749998,-0.31601367187499996,9.145244140625,0.04,0.0,0.0,0.0,0.04,0.0,0.0,0.0,0.04
1614383827.7033882,117,1614383827,702599048,base_imu_link,0.04705657601102459,0.05325666049430646,-0.6695246692051791,0.7393822584379534,0.0025,0.0,0.0,0.0,0.0025,0.0,0.0,0.0,0.0025,0.04,0.06,-0.05,0.02,0.0,0.0,0.0,0.02,0.0,0.0,0.0,0.02,-4.99876171875,0.08618554687499999,10.691604374999999,0.04,0.0,0.0,0.0,0.04,0.0,0.0,0.0,0.04
1614383827.7230165,118,1614383827,722379922,base_imu_link,0.05106331811007816,0.05714185824083305,-0.6685594305949213,0.7396996913227475,0.0025,0.0,0.0,0.0,0.0025,0.0,0.0,0.0,0.0025,0.01,-0.53,0.02,0.02,0.0,0.0,0.0,0.02,0.0,0.0,0.0,0.02,1.843604609375,0.10533789062499999,8.56569421875,0.04,0.0,0.0,0.0,0.04,0.0,0.0,0.0,0.04
1614383827.7432814,119,1614383827,742439031,base_imu_link,0.04530053856838987,0.050031586425965946,-0.6687084216958844,0.7404550954096503,0.0025,0.0,0.0,0.0,0.0025,0.0,0.0,0.0,0.0025,0.01,0.34,-0.02,0.02,0.0,0.0,0.0,0.02,0.0,0.0,0.0,0.02,-1.6949824218749998,-1.07253125,9.604900390625,0.04,0.0,0.0,0.0,0.04,0.0,0.0,0.0,0.04
1614383827.7627714,120,1614383827,762092113,base_imu_link,0.042786140708609054,0.0548837239647029,-0.6685405504094417,0.7404124900791925,0.0025,0.0,0.0,0.0,0.0025,0.0,0.0,0.0,0.0025,0.06,-0.04,-0.0,0.02,0.0,0.0,0.0,0.02,0.0,0.0,0.0,0.02,-5.223993281249999,0.330569453125,10.830650390625,0.04,0.0,0.0,0.0,0.04,0.0,0.0,0.0,0.04
1614383827.7833986,121,1614383827,782676935,base_imu_link,0.04815373396564088,0.058122457204583616,-0.6673044618425582,0.7409505739782388,0.0025,0.0,0.0,0.0,0.0025,0.0,0.0,0.0,0.0025,0.06,-0.48,0.05,0.02,0.0,0.0,0.0,0.02,0.0,0.0,0.0,0.02,2.2170753125,-0.181947265625,8.37417078125,0.04,0.0,0.0,0.0,0.04,0.0,0.0,0.0,0.04
1614383827.8031921,122,1614383827,802256107,base_imu_link,0.041193794639655695,0.05056554051613081,-0.6675495917274886,0.7417032694952618,0.0025,0.0,0.0,0.0,0.0025,0.0,0.0,0.0,0.0025,0.05,0.32,-0.01,0.02,0.0,0.0,0.0,0.02,0.0,0.0,0.0,0.02,-3.4332491406249996,0.04290125,10.581669921875,0.04,0.0,0.0,0.0,0.04,0.0,0.0,0.0,0.04
1614383827.8232245,123,1614383827,822438955,base_imu_link,0.04481518458719474,0.05339405402827089,-0.6666040579424514,0.7421453389731009,0.0025,0.0,0.0,0.0,0.0025,0.0,0.0,0.0,0.0025,0.05,-0.35,0.06,0.02,0.0,0.0,0.0,0.02,0.0,0.0,0.0,0.02,-1.197021484375,0.40219921875,8.5848465625,0.04,0.0,0.0,0.0,0.04,0.0,0.0,0.0,0.04
1614383827.8435078,124,1614383827,842834949,base_imu_link,0.04786497399508283,0.05498344353286334,-0.6663827531899439,0.742037594366154,0.0025,0.0,0.0,0.0,0.0025,0.0,0.0,0.0,0.0025,-0.05,0.3,-0.04,0.02,0.0,0.0,0.0,0.02,0.0,0.0,0.0,0.02,-1.5992207031249999,-0.36389453125,10.09788171875,0.04,0.0,0.0,0.0,0.04,0.0,0.0,0.0,0.04
1614383827.8632119,125,1614383827,862456083,base_imu_link,0.04703036654192654,0.05631619660091946,-0.6659544280692034,0.7423754645449693,0.0025,0.0,0.0,0.0,0.0025,0.0,0.0,0.0,0.0025,0.03,-0.04,-0.01,0.02,0.0,0.0,0.0,0.02,0.0,0.0,0.0,0.02,-4.615714843749999,0.30184093749999996,10.32770984375,0.04,0.0,0.0,0.0,0.04,0.0,0.0,0.0,0.04
1614383827.883508,126,1614383827,882817983,base_imu_link,0.05330870611377155,0.06213582732742396,-0.66477183388714,0.7425467861927227,0.0025,0.0,0.0,0.0,0.0025,0.0,0.0,0.0,0.0025,-0.03,-0.28,-0.01,0.02,0.0,0.0,0.0,0.02,0.0,0.0,0.0,0.02,-0.181947265625,-0.201099609375,8.896263671875,0.04,0.0,0.0,0.0,0.04,0.0,0.0,0.0,0.04
1614383827.904141,127,1614383827,903304100,base_imu_link,0.049089169258307676,0.05914064708197771,-0.6648499293815141,0.7430122534155476,0.0025,0.0,0.0,0.0,0.0025,0.0,0.0,0.0,0.0025,-0.03,0.01,-0.02,0.02,0.0,0.0,0.0,0.02,0.0,0.0,0.0,0.02,-2.078029296875,-0.44050390624999997,9.758119140624999,0.04,0.0,0.0,0.0,0.04,0.0,0.0,0.0,0.04
1614383827.923946,128,1614383827,923125028,base_imu_link,0.05057856430189908,0.06341109195418036,-0.6645108898455714,0.7428634595448775,0.0025,0.0,0.0,0.0,0.0025,0.0,0.0,0.0,0.0025,0.03,0.1,-0.02,0.02,0.0,0.0,0.0,0.02,0.0,0.0,0.0,0.02,-0.8955635937499998,-0.23480773437499997,9.758119140624999,0.04,0.0,0.0,0.0,0.04,0.0,0.0,0.0,0.04
1614383827.9439754,129,1614383827,943192958,base_imu_link,0.048039405577479787,0.06112877449909159,-0.6644867075459863,0.7432448479032308,0.0025,0.0,0.0,0.0,0.0025,0.0,0.0,0.0,0.0025,0.05,-0.01,-0.03,0.02,0.0,0.0,0.0,0.02,0.0,0.0,0.0,0.02,-4.46249609375,0.8859874218749999,9.322594843749998,0.04,0.0,0.0,0.0,0.04,0.0,0.0,0.0,0.04
1614383827.9639437,130,1614383827,963030099,base_imu_link,0.05933077550448305,0.06724592116579343,-0.6632285113270409,0.7430247552588793,0.0025,0.0,0.0,0.0,0.0025,0.0,0.0,0.0,0.0025,-0.0,-0.18,-0.02,0.02,0.0,0.0,0.0,0.02,0.0,0.0,0.0,0.02,-1.4747304687499998,0.564994140625,9.470833984375,0.04,0.0,0.0,0.0,0.04,0.0,0.0,0.0,0.04
1614383827.9832387,131,1614383827,982526063,base_imu_link,0.06073464612680039,0.06401214403873716,-0.6633973892041537,0.7430461978723322,0.0025,0.0,0.0,0.0,0.0025,0.0,0.0,0.0,0.0025,0.04,-0.06,-0.03,0.02,0.0,0.0,0.0,0.02,0.0,0.0,0.0,0.02,-1.383948359375,0.23480773437499997,9.882609375,0.04,0.0,0.0,0.0,0.04,0.0,0.0,0.0,0.04
1614383828.0032392,132,1614383828,2480983,base_imu_link,0.059938105592694704,0.06169360601230991,-0.6635190289196723,0.7431983723990869,0.0025,0.0,0.0,0.0,0.0025,0.0,0.0,0.0,0.0025,0.01,-0.07,-0.03,0.02,0.0,0.0,0.0,0.02,0.0,0.0,0.0,0.02,-0.55082140625,-0.20607921875,9.150223749999999,0.04,0.0,0.0,0.0,0.04,0.0,0.0,0.0,0.04
1614383828.0236063,133,1614383828,22780895,base_imu_link,0.05699187316629217,0.059543920314156555,-0.6637929199080743,0.7433608863980747,0.0025,0.0,0.0,0.0,0.0025,0.0,0.0,0.0,0.0025,0.06,0.08,-0.04,0.02,0.0,0.0,0.0,0.02,0.0,0.0,0.0,0.02,-3.6918057812499994,-0.162794921875,9.925510625,0.04,0.0,0.0,0.0,0.04,0.0,0.0,0.0,0.04
1614383828.043671,134,1614383828,42864084,base_imu_link,0.059751842859621956,0.06453882853778845,-0.6637284005569015,0.742784670803071,0.0025,0.0,0.0,0.0,0.0025,0.0,0.0,0.0,0.0025,-0.02,-0.36,-0.02,0.02,0.0,0.0,0.0,0.02,0.0,0.0,0.0,0.02,-1.302359375,0.139046015625,8.982449218749998,0.04,0.0,0.0,0.0,0.04,0.0,0.0,0.0,0.04
1614383828.0643446,135,1614383828,63261032,base_imu_link,0.060671910311050424,0.06488169438564366,-0.6639008368633914,0.7425260694716007,0.0025,0.0,0.0,0.0,0.0025,0.0,0.0,0.0,0.0025,0.0,0.19,-0.05,0.02,0.0,0.0,0.0,0.02,0.0,0.0,0.0,0.02,-1.1874453125,-0.5412452343749999,10.835246953124999,0.04,0.0,0.0,0.0,0.04,0.0,0.0,0.0,0.04
1614383828.0835352,136,1614383828,82777023,base_imu_link,0.055629434231306174,0.06239238103429011,-0.6639349195536189,0.7431036128517384,0.0025,0.0,0.0,0.0,0.0025,0.0,0.0,0.0,0.0025,0.03,-0.25,0.0,0.02,0.0,0.0,0.0,0.02,0.0,0.0,0.0,0.02,-2.31283703125,0.34474218749999996,8.8820909375,0.04,0.0,0.0,0.0,0.04,0.0,0.0,0.0,0.04
1614383828.1044903,137,1614383828,103629112,base_imu_link,0.06034842240519235,0.06587097660088984,-0.6635540899043323,0.7427752366133937,0.0025,0.0,0.0,0.0,0.0025,0.0,0.0,0.0,0.0025,-0.02,0.18,-0.06,0.02,0.0,0.0,0.0,0.02,0.0,0.0,0.0,0.02,-1.07253125,-0.67492859375,10.3085575,0.04,0.0,0.0,0.0,0.04,0.0,0.0,0.0,0.04
1614383828.1242568,138,1614383828,123372077,base_imu_link,0.05420690199846777,0.06378023437352552,-0.6639330584082378,0.7430925833512741,0.0025,0.0,0.0,0.0,0.0025,0.0,0.0,0.0,0.0025,0.02,-0.23,-0.03,0.02,0.0,0.0,0.0,0.02,0.0,0.0,0.0,0.02,-4.414615234375,0.7182128906249999,9.796423828124999,0.04,0.0,0.0,0.0,0.04,0.0,0.0,0.0,0.04
1614383828.1439333,139,1614383828,143183946,base_imu_link,0.06437518818018353,0.07043037531536647,-0.6629241906770541,0.742581251308485,0.0025,0.0,0.0,0.0,0.0025,0.0,0.0,0.0,0.0025,0.0,0.0,-0.01,0.02,0.0,0.0,0.0,0.02,0.0,0.0,0.0,0.02,1.55133984375,0.28268859375,9.020753906249999,0.04,0.0,0.0,0.0,0.04,0.0,0.0,0.0,0.04
1614383828.1640935,140,1614383828,163219928,base_imu_link,0.05650439646206707,0.05928024430539931,-0.6636803344664949,0.7435196833023261,0.0025,0.0,0.0,0.0,0.0025,0.0,0.0,0.0,0.0025,0.05,0.08,-0.04,0.02,0.0,0.0,0.0,0.02,0.0,0.0,0.0,0.02,-5.415516718749999,0.35431835937499995,10.356438359375,0.04,0.0,0.0,0.0,0.04,0.0,0.0,0.0,0.04
1614383828.1841366,141,1614383828,183438062,base_imu_link,0.06241609838578034,0.06391334195955503,-0.6628437854432111,0.7434093296974231,0.0025,0.0,0.0,0.0,0.0025,0.0,0.0,0.0,0.0025,0.04,-0.46,0.01,0.02,0.0,0.0,0.0,0.02,0.0,0.0,0.0,0.02,0.9193125,-0.23480773437499997,8.594805781249999,0.04,0.0,0.0,0.0,0.04,0.0,0.0,0.0,0.04
1614383828.20388,142,1614383828,203111886,base_imu_link,0.05695183081075968,0.05981442231506165,-0.6634488700519388,0.7436493264148257,0.0025,0.0,0.0,0.0,0.0025,0.0,0.0,0.0,0.0025,0.01,0.27,-0.06,0.02,0.0,0.0,0.0,0.02,0.0,0.0,0.0,0.02,-4.2089190625,-0.27311242187499996,10.538385625,0.04,0.0,0.0,0.0,0.04,0.0,0.0,0.0,0.04
1614383828.2236552,143,1614383828,222906112,base_imu_link,0.06042479484059287,0.0642911868550362,-0.662791196058794,0.7435881372696828,0.0025,0.0,0.0,0.0,0.0025,0.0,0.0,0.0,0.0025,0.09,-0.33,0.01,0.02,0.0,0.0,0.0,0.02,0.0,0.0,0.0,0.02,-0.17696765625,0.32558984375,8.1588984375,0.04,0.0,0.0,0.0,0.04,0.0,0.0,0.0,0.04
1614383828.2438312,144,1614383828,243169069,base_imu_link,0.06033311374387308,0.06285825436296756,-0.6630402337119198,0.7434960683982478,0.0025,0.0,0.0,0.0,0.0025,0.0,0.0,0.0,0.0025,0.0,0.29,-0.07,0.02,0.0,0.0,0.0,0.02,0.0,0.0,0.0,0.02,-4.0986015625,0.16739148437499998,10.332689453124999,0.04,0.0,0.0,0.0,0.04,0.0,0.0,0.0,0.04
1614383828.2641308,145,1614383828,263329029,base_imu_link,0.06448643572376055,0.06672814887710486,-0.6621067345903972,0.7436420683131917,0.0025,0.0,0.0,0.0,0.0025,0.0,0.0,0.0,0.0025,0.02,-0.33,0.03,0.02,0.0,0.0,0.0,0.02,0.0,0.0,0.0,0.02,-2.24082421875,-0.32099328125,8.9587003125,0.04,0.0,0.0,0.0,0.04,0.0,0.0,0.0,0.04
1614383828.283973,146,1614383828,283299922,base_imu_link,0.06574348458038792,0.07154071171583795,-0.6616779824336033,0.7434661850851157,0.0025,0.0,0.0,0.0,0.0025,0.0,0.0,0.0,0.0025,-0.03,0.17,-0.03,0.02,0.0,0.0,0.0,0.02,0.0,0.0,0.0,0.02,-0.967193359375,0.37347070312499997,10.385166875,0.04,0.0,0.0,0.0,0.04,0.0,0.0,0.0,0.04
1614383828.3040345,147,1614383828,303280115,base_imu_link,0.06363194442327746,0.06527977224211656,-0.6620313637611627,0.7439112852897618,0.0025,0.0,0.0,0.0,0.0025,0.0,0.0,0.0,0.0025,0.1,-0.16,0.01,0.02,0.0,0.0,0.0,0.02,0.0,0.0,0.0,0.02,-0.641603515625,0.08120593749999999,8.379150390625,0.04,0.0,0.0,0.0,0.04,0.0,0.0,0.0,0.04
1614383828.324411,148,1614383828,323750019,base_imu_link,0.06355404867012594,0.06441893220591574,-0.6620401686116765,0.7439851471741273,0.0025,0.0,0.0,0.0,0.0025,0.0,0.0,0.0,0.0025,0.06,0.23,-0.03,0.02,0.0,0.0,0.0,0.02,0.0,0.0,0.0,0.02,-4.060296875,-0.076609375,10.969313359374999,0.04,0.0,0.0,0.0,0.04,0.0,0.0,0.0,0.04
1614383828.344331,149,1614383828,343684911,base_imu_link,0.06534133278513225,0.06713423726945997,-0.6615652710047921,0.7440126992306425,0.0025,0.0,0.0,0.0,0.0025,0.0,0.0,0.0,0.0025,0.01,-0.36,0.01,0.02,0.0,0.0,0.0,0.02,0.0,0.0,0.0,0.02,-1.024650390625,-0.06243664062499999,8.3550184375,0.04,0.0,0.0,0.0,0.04,0.0,0.0,0.0,0.04
1614383828.3646476,150,1614383828,363735914,base_imu_link,0.06440296271600926,0.06796645442631312,-0.6618663436289812,0.7437511429485804,0.0025,0.0,0.0,0.0,0.0025,0.0,0.0,0.0,0.0025,-0.06,0.18,-0.09,0.02,0.0,0.0,0.0,0.02,0.0,0.0,0.0,0.02,-2.9157528125,0.507537109375,10.67245203125,0.04,0.0,0.0,0.0,0.04,0.0,0.0,0.0,0.04
1614383828.38433,151,1614383828,383685111,base_imu_link,0.06709185121516302,0.06836387317602982,-0.6619244670914958,0.7434252243571866,0.0025,0.0,0.0,0.0,0.0025,0.0,0.0,0.0,0.0025,0.01,-0.16,-0.06,0.02,0.0,0.0,0.0,0.02,0.0,0.0,0.0,0.02,-0.86185546875,-0.15321875,9.738966796875,0.04,0.0,0.0,0.0,0.04,0.0,0.0,0.0,0.04
1614383828.4047692,152,1614383828,404011964,base_imu_link,0.06331384602484452,0.06532571094068891,-0.6626675525194865,0.7433677577279428,0.0025,0.0,0.0,0.0,0.0025,0.0,0.0,0.0,0.0025,0.06,0.01,-0.05,0.02,0.0,0.0,0.0,0.02,0.0,0.0,0.0,0.02,-4.505780390625,0.7036571093749999,10.418875,0.04,0.0,0.0,0.0,0.04,0.0,0.0,0.0,0.04
1614383828.4242072,153,1614383828,423502922,base_imu_link,0.06990488138708481,0.06958111875794387,-0.6617808930460827,0.7431808831433837,0.0025,0.0,0.0,0.0,0.0025,0.0,0.0,0.0,0.0025,0.01,-0.18,-0.03,0.02,0.0,0.0,0.0,0.02,0.0,0.0,0.0,0.02,0.32558984375,-0.24438390624999998,9.380051875,0.04,0.0,0.0,0.0,0.04,0.0,0.0,0.0,0.04
1614383828.4444096,154,1614383828,443698883,base_imu_link,0.06201948018155375,0.06287211600978175,-0.6626054238977847,0.7437437282610855,0.0025,0.0,0.0,0.0,0.0025,0.0,0.0,0.0,0.0025,0.03,-0.03,-0.03,0.02,0.0,0.0,0.0,0.02,0.0,0.0,0.0,0.02,-3.6006406249999996,0.43590734375,9.36549609375,0.04,0.0,0.0,0.0,0.04,0.0,0.0,0.0,0.04
1614383828.464415,155,1614383828,463690042,base_imu_link,0.06914643712897646,0.06850722169233658,-0.6623200118809596,0.7428712759761084,0.0025,0.0,0.0,0.0,0.0025,0.0,0.0,0.0,0.0025,-0.0,-0.07,-0.06,0.02,0.0,0.0,0.0,0.02,0.0,0.0,0.0,0.02,-0.047880859374999994,-0.201099609375,9.74854296875,0.04,0.0,0.0,0.0,0.04,0.0,0.0,0.0,0.04
1614383828.484568,156,1614383828,483601093,base_imu_link,0.060466903652655814,0.06169005098909986,-0.6632026144169915,0.7434382176092981,0.0025,0.0,0.0,0.0,0.0025,0.0,0.0,0.0,0.0025,-0.02,-0.18,-0.05,0.02,0.0,0.0,0.0,0.02,0.0,0.0,0.0,0.02,-1.465154296875,0.014555781249999998,8.781349609374999,0.04,0.0,0.0,0.0,0.04,0.0,0.0,0.0,0.04
1614383828.5048842,157,1614383828,504029035,base_imu_link,0.06085990319910812,0.06261967235152437,-0.6633228947979108,0.7432210882732694,0.0025,0.0,0.0,0.0,0.0025,0.0,0.0,0.0,0.0025,0.01,0.09,-0.08,0.02,0.0,0.0,0.0,0.02,0.0,0.0,0.0,0.02,-2.135486328125,-0.55082140625,10.854399296875,0.04,0.0,0.0,0.0,0.04,0.0,0.0,0.0,0.04
1614383828.524595,158,1614383828,523813962,base_imu_link,0.05783513392284104,0.06322069949171517,-0.6635645847434934,0.7431959918582045,0.0025,0.0,0.0,0.0,0.0025,0.0,0.0,0.0,0.0025,-0.02,-0.27,-0.03,0.02,0.0,0.0,0.0,0.02,0.0,0.0,0.0,0.02,-1.1349678906249998,0.004979609375,8.479891718749998,0.04,0.0,0.0,0.0,0.04,0.0,0.0,0.0,0.04
1614383828.5447705,159,1614383828,543971061,base_imu_link,0.058232369482457684,0.06309848030953935,-0.6638361981290415,0.7429327526638364,0.0025,0.0,0.0,0.0,0.0025,0.0,0.0,0.0,0.0025,0.06,0.12,-0.08,0.02,0.0,0.0,0.0,0.02,0.0,0.0,0.0,0.02,-2.9540575,-0.63662390625,11.419393437499998,0.04,0.0,0.0,0.0,0.04,0.0,0.0,0.0,0.04
1614383828.5644376,160,1614383828,563783884,base_imu_link,0.05773391035218976,0.0652924695721285,-0.663578750925806,0.7430120660745457,0.0025,0.0,0.0,0.0,0.0025,0.0,0.0,0.0,0.0025,0.04,-0.2,-0.03,0.02,0.0,0.0,0.0,0.02,0.0,0.0,0.0,0.02,-0.56997375,0.3784503125,8.60399890625,0.04,0.0,0.0,0.0,0.04,0.0,0.0,0.0,0.04
1614383828.5847354,161,1614383828,584166049,base_imu_link,0.0567389229233372,0.06210103720942741,-0.6637764708736572,0.74318567835873,0.0025,0.0,0.0,0.0,0.0025,0.0,0.0,0.0,0.0025,-0.0,0.04,-0.07,0.02,0.0,0.0,0.0,0.02,0.0,0.0,0.0,0.02,-4.089025390624999,0.27770898437499997,10.21279578125,0.04,0.0,0.0,0.0,0.04,0.0,0.0,0.0,0.04
1614383828.604612,162,1614383828,603890895,base_imu_link,0.06338182501048593,0.06852194698354551,-0.6631548164205388,0.7426393313703267,0.0025,0.0,0.0,0.0,0.0025,0.0,0.0,0.0,0.0025,-0.02,-0.03,-0.04,0.02,0.0,0.0,0.0,0.02,0.0,0.0,0.0,0.02,0.22025195312499998,0.19650304687499998,9.202701171874999,0.04,0.0,0.0,0.0,0.04,0.0,0.0,0.0,0.04
1614383828.624499,163,1614383828,623835086,base_imu_link,0.057804315329038375,0.06068293942380633,-0.6639026608026319,0.7431079995339933,0.0025,0.0,0.0,0.0,0.0025,0.0,0.0,0.0,0.0025,0.04,-0.1,-0.03,0.02,0.0,0.0,0.0,0.02,0.0,0.0,0.0,0.02,-3.8354483593749995,-0.08618554687499999,9.67653015625,0.04,0.0,0.0,0.0,0.04,0.0,0.0,0.0,0.04
1614383828.6448052,164,1614383828,644182920,base_imu_link,0.06406306029756732,0.06884457144196082,-0.6633893440031624,0.742341516790848,0.0025,0.0,0.0,0.0,0.0025,0.0,0.0,0.0,0.0025,-0.01,0.01,-0.05,0.02,0.0,0.0,0.0,0.02,0.0,0.0,0.0,0.02,-0.20607921875,-0.0720128125,10.256080078124999,0.04,0.0,0.0,0.0,0.04,0.0,0.0,0.0,0.04
1614383828.6647854,165,1614383828,663943052,base_imu_link,0.05815720822268562,0.06188400123103331,-0.6636792133175362,0.7431810084586372,0.0025,0.0,0.0,0.0,0.0025,0.0,0.0,0.0,0.0025,0.09,-0.14,-0.01,0.02,0.0,0.0,0.0,0.02,0.0,0.0,0.0,0.02,-2.465672734375,-0.033708125,8.94414453125,0.04,0.0,0.0,0.0,0.04,0.0,0.0,0.0,0.04
1614383828.6853116,166,1614383828,684478044,base_imu_link,0.061746825402117206,0.06636940089931877,-0.6636528412256592,0.7425276685148748,0.0025,0.0,0.0,0.0,0.0025,0.0,0.0,0.0,0.0025,0.01,0.11,-0.06,0.02,0.0,0.0,0.0,0.02,0.0,0.0,0.0,0.02,-0.7182128906249999,0.430927734375,9.863457031249999,0.04,0.0,0.0,0.0,0.04,0.0,0.0,0.0,0.04
1614383828.7046041,167,1614383828,703845024,base_imu_link,0.05953658934539407,0.06053443955685175,-0.663931144658219,0.7429578799026785,0.0025,0.0,0.0,0.0,0.0025,0.0,0.0,0.0,0.0025,0.03,-0.06,-0.05,0.02,0.0,0.0,0.0,0.02,0.0,0.0,0.0,0.02,-1.09168359375,-0.0383046875,8.939547968749999,0.04,0.0,0.0,0.0,0.04,0.0,0.0,0.0,0.04
1614383828.7252173,168,1614383828,724469900,base_imu_link,0.05865776605195374,0.05991949005947401,-0.6641007513453147,0.7429260483085753,0.0025,0.0,0.0,0.0,0.0025,0.0,0.0,0.0,0.0025,0.03,0.06,-0.04,0.02,0.0,0.0,0.0,0.02,0.0,0.0,0.0,0.02,-4.094004999999999,-0.023748906249999997,9.8872059375,0.04,0.0,0.0,0.0,0.04,0.0,0.0,0.0,0.04
1614383828.7450223,169,1614383828,744055032,base_imu_link,0.0643261171030395,0.06686390755576418,-0.6631859212973954,0.7426814945302902,0.0025,0.0,0.0,0.0,0.0025,0.0,0.0,0.0,0.0025,0.01,-0.15,-0.02,0.02,0.0,0.0,0.0,0.02,0.0,0.0,0.0,0.02,-0.28728515624999995,-0.139046015625,9.834728515624999,0.04,0.0,0.0,0.0,0.04,0.0,0.0,0.0,0.04
1614383828.76559,170,1614383828,764728069,base_imu_link,0.05853398568115871,0.0616643971067693,-0.6636365311769349,0.7432077967413836,0.0025,0.0,0.0,0.0,0.0025,0.0,0.0,0.0,0.0025,0.04,-0.02,-0.03,0.02,0.0,0.0,0.0,0.02,0.0,0.0,0.0,0.02,-2.379870234375,-0.19650304687499998,8.997005,0.04,0.0,0.0,0.0,0.04,0.0,0.0,0.0,0.04
1614383828.78505,171,1614383828,784285068,base_imu_link,0.0611750104385383,0.06629833083360975,-0.6633961885244605,0.7428106397176474,0.0025,0.0,0.0,0.0,0.0025,0.0,0.0,0.0,0.0025,0.02,0.1,-0.06,0.02,0.0,0.0,0.0,0.02,0.0,0.0,0.0,0.02,-2.2649561718749998,0.22025195312499998,10.145762578125,0.04,0.0,0.0,0.0,0.04,0.0,0.0,0.0,0.04
1614383828.8049297,172,1614383828,804176092,base_imu_link,0.061950786607808936,0.06595717433172053,-0.6629198094026215,0.7432019089685123,0.0025,0.0,0.0,0.0,0.0025,0.0,0.0,0.0,0.0025,0.01,-0.19,-0.05,0.02,0.0,0.0,0.0,0.02,0.0,0.0,0.0,0.02,-1.6279492187499998,0.08120593749999999,9.413376953124999,0.04,0.0,0.0,0.0,0.04,0.0,0.0,0.0,0.04
1614383828.8254077,173,1614383828,824676990,base_imu_link,0.06191848778732166,0.06563601718451548,-0.6630762602999739,0.7430934578805592,0.0025,0.0,0.0,0.0,0.0025,0.0,0.0,0.0,0.0025,0.01,-0.01,-0.04,0.02,0.0,0.0,0.0,0.02,0.0,0.0,0.0,0.02,-1.8194726562499999,-0.56997375,9.37009265625,0.04,0.0,0.0,0.0,0.04,0.0,0.0,0.0,0.04
1614383828.8457134,174,1614383828,844999074,base_imu_link,0.061387382178870936,0.06878841905201225,-0.6636875779083925,0.7423062317154838,0.0025,0.0,0.0,0.0,0.0025,0.0,0.0,0.0,0.0025,0.07,0.12,-0.07,0.02,0.0,0.0,0.0,0.02,0.0,0.0,0.0,0.02,-2.2120957031249997,-0.10074132812499999,10.16989453125,0.04,0.0,0.0,0.0,0.04,0.0,0.0,0.0,0.04
1614383828.8657749,175,1614383828,864761114,base_imu_link,0.060621613878915986,0.06889084952871752,-0.6641197669880614,0.7419730492933354,0.0025,0.0,0.0,0.0,0.0025,0.0,0.0,0.0,0.0025,0.0,-0.22,-0.08,0.02,0.0,0.0,0.0,0.02,0.0,0.0,0.0,0.02,-1.7957237499999998,0.28268859375,8.94874109375,0.04,0.0,0.0,0.0,0.04,0.0,0.0,0.0,0.04
1614383828.8856416,176,1614383828,884850978,base_imu_link,0.0627120269576392,0.06923516189812214,-0.6643018007095564,0.7416042149326324,0.0025,0.0,0.0,0.0,0.0025,0.0,0.0,0.0,0.0025,0.01,0.08,-0.09,0.02,0.0,0.0,0.0,0.02,0.0,0.0,0.0,0.02,-2.4469034375,-0.067033203125,10.576690312499998,0.04,0.0,0.0,0.0,0.04,0.0,0.0,0.0,0.04
1614383828.905235,177,1614383828,904439926,base_imu_link,0.06339733921154234,0.07013714572854379,-0.6648657277755826,0.7409555467093788,0.0025,0.0,0.0,0.0,0.0025,0.0,0.0,0.0,0.0025,0.03,-0.09,-0.07,0.02,0.0,0.0,0.0,0.02,0.0,0.0,0.0,0.02,-1.197021484375,0.09576171874999999,9.451681640624999,0.04,0.0,0.0,0.0,0.04,0.0,0.0,0.0,0.04
1614383828.9251313,178,1614383828,924536943,base_imu_link,0.06206782777788856,0.06701133464901383,-0.6648829811948497,0.7413418152923397,0.0025,0.0,0.0,0.0,0.0025,0.0,0.0,0.0,0.0025,0.09,-0.06,-0.04,0.02,0.0,0.0,0.0,0.02,0.0,0.0,0.0,0.02,-3.1172354687499997,0.41177539062499996,9.308039062499999,0.04,0.0,0.0,0.0,0.04,0.0,0.0,0.0,0.04
1614383828.9452026,179,1614383828,944535970,base_imu_link,0.0687145634228759,0.07155144248670059,-0.6645955137758658,0.7405886192216761,0.0025,0.0,0.0,0.0,0.0025,0.0,0.0,0.0,0.0025,0.01,0.03,-0.06,0.02,0.0,0.0,0.0,0.02,0.0,0.0,0.0,0.02,-0.9767695312499999,0.06243664062499999,10.145762578125,0.04,0.0,0.0,0.0,0.04,0.0,0.0,0.0,0.04
1614383828.9654665,180,1614383828,964698076,base_imu_link,0.06448930425823558,0.06670652975135527,-0.6649986529485906,0.7410588101503014,0.0025,0.0,0.0,0.0,0.0025,0.0,0.0,0.0,0.0025,0.03,-0.17,-0.04,0.02,0.0,0.0,0.0,0.02,0.0,0.0,0.0,0.02,-2.5089570312499996,0.46923242187499997,8.757217656249999,0.04,0.0,0.0,0.0,0.04,0.0,0.0,0.0,0.04
1614383828.9857366,181,1614383828,985095024,base_imu_link,0.06878283338492233,0.06927245811153773,-0.6648744424010568,0.7405485967987588,0.0025,0.0,0.0,0.0,0.0025,0.0,0.0,0.0,0.0025,-0.02,0.06,-0.07,0.02,0.0,0.0,0.0,0.02,0.0,0.0,0.0,0.02,-1.9872471875,0.23940429687499998,10.466755859374999,0.04,0.0,0.0,0.0,0.04,0.0,0.0,0.0,0.04
1614383829.0053515,182,1614383829,4592895,base_imu_link,0.06796922122061942,0.0669699601657186,-0.6648827212990939,0.7408280342427493,0.0025,0.0,0.0,0.0,0.0025,0.0,0.0,0.0,0.0025,0.04,-0.22,-0.03,0.02,0.0,0.0,0.0,0.02,0.0,0.0,0.0,0.02,-1.1349678906249998,0.047880859374999994,8.71431640625,0.04,0.0,0.0,0.0,0.04,0.0,0.0,0.0,0.04
1614383829.02597,183,1614383829,25008916,base_imu_link,0.06742448593275219,0.0664110416552042,-0.66467033134186,0.741118656408592,0.0025,0.0,0.0,0.0,0.0025,0.0,0.0,0.0,0.0025,0.04,0.11,-0.01,0.02,0.0,0.0,0.0,0.02,0.0,0.0,0.0,0.02,-3.5719121093749995,-0.22523156249999998,10.59584265625,0.04,0.0,0.0,0.0,0.04,0.0,0.0,0.0,0.04
1614383829.0459588,184,1614383829,44929027,base_imu_link,0.07010626721056047,0.07077543700213232,-0.6639803157466667,0.7410844008046015,0.0025,0.0,0.0,0.0,0.0025,0.0,0.0,0.0,0.0025,0.04,-0.1,0.02,0.02,0.0,0.0,0.0,0.02,0.0,0.0,0.0,0.02,-1.2544785156249998,0.28728515624999995,9.509138671874998,0.04,0.0,0.0,0.0,0.04,0.0,0.0,0.0,0.04
1614383829.0662913,185,1614383829,65203905,base_imu_link,0.06861013328438322,0.06722272224504354,-0.6639055946685182,0.7416219499128288,0.0025,0.0,0.0,0.0,0.0025,0.0,0.0,0.0,0.0025,0.04,-0.07,0.01,0.02,0.0,0.0,0.0,0.02,0.0,0.0,0.0,0.02,-3.0931035156249997,-0.15321875,9.063655156249999,0.04,0.0,0.0,0.0,0.04,0.0,0.0,0.0,0.04
1614383829.0858195,186,1614383829,85061073,base_imu_link,0.07168761993826786,0.07285798961907364,-0.6635427898072866,0.7411231777451143,0.0025,0.0,0.0,0.0,0.0025,0.0,0.0,0.0,0.0025,-0.0,-0.06,-0.03,0.02,0.0,0.0,0.0,0.02,0.0,0.0,0.0,0.02,-0.641603515625,0.741961796875,9.74854296875,0.04,0.0,0.0,0.0,0.04,0.0,0.0,0.0,0.04
1614383829.105527,187,1614383829,104835987,base_imu_link,0.06886115713766246,0.06455317525390034,-0.6638848289706045,0.7418544078624676,0.0025,0.0,0.0,0.0,0.0025,0.0,0.0,0.0,0.0025,0.02,-0.14,-0.05,0.02,0.0,0.0,0.0,0.02,0.0,0.0,0.0,0.02,-1.364796015625,-0.17237109374999998,9.126091796874999,0.04,0.0,0.0,0.0,0.04,0.0,0.0,0.0,0.04
1614383829.1259644,188,1614383829,125195026,base_imu_link,0.06750660266893042,0.06506167004326077,-0.6641477338293866,0.74169914745574,0.0025,0.0,0.0,0.0,0.0025,0.0,0.0,0.0,0.0025,0.02,0.08,-0.04,0.02,0.0,0.0,0.0,0.02,0.0,0.0,0.0,0.02,-3.6343487499999996,-0.05286046874999999,9.8780128125,0.04,0.0,0.0,0.0,0.04,0.0,0.0,0.0,0.04
1614383829.1455445,189,1614383829,144845962,base_imu_link,0.07150163421686385,0.07057799645863054,-0.66369427133826,0.7412261307542924,0.0025,0.0,0.0,0.0,0.0025,0.0,0.0,0.0,0.0025,0.03,-0.12,-0.04,0.02,0.0,0.0,0.0,0.02,0.0,0.0,0.0,0.02,-0.9817491406249998,0.292264765625,10.1170340625,0.04,0.0,0.0,0.0,0.04,0.0,0.0,0.0,0.04
1614383829.165766,190,1614383829,164979934,base_imu_link,0.06841746635334912,0.06588279555711202,-0.6637652814516238,0.7418855428479617,0.0025,0.0,0.0,0.0,0.0025,0.0,0.0,0.0,0.0025,0.02,-0.08,-0.04,0.02,0.0,0.0,0.0,0.02,0.0,0.0,0.0,0.02,-2.4560965625,0.23480773437499997,8.901243281249998,0.04,0.0,0.0,0.0,0.04,0.0,0.0,0.0,0.04
1614383829.1861103,191,1614383829,185435056,base_imu_link,0.07127151676869739,0.06869028811471022,-0.6635459431636049,0.7415583567915132,0.0025,0.0,0.0,0.0,0.0025,0.0,0.0,0.0,0.0025,-0.0,0.03,-0.06,0.02,0.0,0.0,0.0,0.02,0.0,0.0,0.0,0.02,-2.4515,0.162794921875,10.227351562499999,0.04,0.0,0.0,0.0,0.04,0.0,0.0,0.0,0.04
1614383829.2059805,192,1614383829,205035924,base_imu_link,0.0715277412700206,0.06939484538687053,-0.6633561384178932,0.741637897687168,0.0025,0.0,0.0,0.0,0.0025,0.0,0.0,0.0,0.0025,-0.02,-0.14,-0.05,0.02,0.0,0.0,0.0,0.02,0.0,0.0,0.0,0.02,-1.0966632031249999,0.076609375,9.3417471875,0.04,0.0,0.0,0.0,0.04,0.0,0.0,0.0,0.04
1614383829.2267087,193,1614383829,225672960,base_imu_link,0.06902815667927661,0.06685330509951992,-0.6635581534976539,0.741927439922204,0.0025,0.0,0.0,0.0,0.0025,0.0,0.0,0.0,0.0025,0.03,-0.02,-0.04,0.02,0.0,0.0,0.0,0.02,0.0,0.0,0.0,0.02,-3.1792890624999997,0.162794921875,9.336767578124999,0.04,0.0,0.0,0.0,0.04,0.0,0.0,0.0,0.04
1614383829.2463737,194,1614383829,245485067,base_imu_link,0.07393581116297088,0.07213545036042786,-0.6629343425670641,0.7415173835279564,0.0025,0.0,0.0,0.0,0.0025,0.0,0.0,0.0,0.0025,0.01,-0.0,-0.02,0.02,0.0,0.0,0.0,0.02,0.0,0.0,0.0,0.02,-1.3215117187499998,-0.05286046874999999,10.05498046875,0.04,0.0,0.0,0.0,0.04,0.0,0.0,0.0,0.04
1614383829.2661514,195,1614383829,265363931,base_imu_link,0.06967539770050796,0.06884291288203759,-0.6629371907843341,0.7422400375728647,0.0025,0.0,0.0,0.0,0.0025,0.0,0.0,0.0,0.0025,0.01,-0.19,-0.02,0.02,0.0,0.0,0.0,0.02,0.0,0.0,0.0,0.02,-1.7332871093749997,0.392623046875,8.86753515625,0.04,0.0,0.0,0.0,0.04,0.0,0.0,0.0,0.04
1614383829.2865756,196,1614383829,285578966,base_imu_link,0.07159370903633162,0.0689984970018504,-0.6624956286754626,0.7424372634935628,0.0025,0.0,0.0,0.0,0.0025,0.0,0.0,0.0,0.0025,0.03,0.11,-0.05,0.02,0.0,0.0,0.0,0.02,0.0,0.0,0.0,0.02,-2.250400390625,-0.14364257812499998,10.337286015624999,0.04,0.0,0.0,0.0,0.04,0.0,0.0,0.0,0.04
1614383829.306331,197,1614383829,305392026,base_imu_link,0.06981052851610485,0.06930719287789981,-0.6626395359783153,0.7424498962772713,0.0025,0.0,0.0,0.0,0.0025,0.0,0.0,0.0,0.0025,-0.01,-0.2,-0.03,0.02,0.0,0.0,0.0,0.02,0.0,0.0,0.0,0.02,-1.39812109375,0.181947265625,9.097363281249999,0.04,0.0,0.0,0.0,0.04,0.0,0.0,0.0,0.04
1614383829.3271255,198,1614383829,325557947,base_imu_link,0.06924817807106354,0.0682965174811038,-0.6626612597551996,0.742576817813109,0.0025,0.0,0.0,0.0,0.0025,0.0,0.0,0.0,0.0025,0.01,0.03,-0.06,0.02,0.0,0.0,0.0,0.02,0.0,0.0,0.0,0.02,-2.7483613281249997,0.37347070312499997,9.772291874999999,0.04,0.0,0.0,0.0,0.04,0.0,0.0,0.0,0.04
1614383829.3479211,199,1614383829,346632003,base_imu_link,0.0728482776329575,0.07078730995770212,-0.6624087335753441,0.7422243292145392,0.0025,0.0,0.0,0.0,0.0025,0.0,0.0,0.0,0.0025,-0.01,0.0,-0.04,0.02,0.0,0.0,0.0,0.02,0.0,0.0,0.0,0.02,-1.27861046875,-0.16739148437499998,10.356438359375,0.04,0.0,0.0,0.0,0.04,0.0,0.0,0.0,0.04
1614383829.366202,200,1614383829,365397930,base_imu_link,0.06858812957236582,0.06772355386864125,-0.6625129362706428,0.7428228577576329,0.0025,0.0,0.0,0.0,0.0025,0.0,0.0,0.0,0.0025,0.04,-0.16,-0.0,0.02,0.0,0.0,0.0,0.02,0.0,0.0,0.0,0.02,-2.681328125,0.12946984374999998,8.977852656249999,0.04,0.0,0.0,0.0,0.04,0.0,0.0,0.0,0.04
1614383829.386838,201,1614383829,386079072,base_imu_link,0.07208679986495686,0.07135712938537045,-0.661768967782111,0.7428145708396598,0.0025,0.0,0.0,0.0,0.0025,0.0,0.0,0.0,0.0025,0.03,0.04,-0.03,0.02,0.0,0.0,0.0,0.02,0.0,0.0,0.0,0.02,-0.9001601562499999,0.08120593749999999,10.337286015624999,0.04,0.0,0.0,0.0,0.04,0.0,0.0,0.0,0.04
1614383829.4061937,202,1614383829,405477046,base_imu_link,0.06763047210967929,0.06614242351168612,-0.6618711730926166,0.7436248041070351,0.0025,0.0,0.0,0.0,0.0025,0.0,0.0,0.0,0.0025,0.05,-0.17,-0.01,0.02,0.0,0.0,0.0,0.02,0.0,0.0,0.0,0.02,-2.4323476562499997,-0.08120593749999999,8.800501953125,0.04,0.0,0.0,0.0,0.04,0.0,0.0,0.0,0.04
1614383829.426831,203,1614383829,426117897,base_imu_link,0.06964095454279699,0.07005442732737356,-0.6611558547919195,0.7437173188359729,0.0025,0.0,0.0,0.0,0.0025,0.0,0.0,0.0,0.0025,-0.0,0.06,-0.02,0.02,0.0,0.0,0.0,0.02,0.0,0.0,0.0,0.02,-1.6042003125,0.6940809375,9.949642578125,0.04,0.0,0.0,0.0,0.04,0.0,0.0,0.0,0.04
1614383829.446401,204,1614383829,445645093,base_imu_link,0.07005169791868339,0.0665694521296027,-0.6602526569305776,0.7448004408416975,0.0025,0.0,0.0,0.0,0.0025,0.0,0.0,0.0,0.0025,-0.0,-0.08,-0.01,0.02,0.0,0.0,0.0,0.02,0.0,0.0,0.0,0.02,-1.302359375,0.35431835937499995,9.308039062499999,0.04,0.0,0.0,0.0,0.04,0.0,0.0,0.0,0.04
1614383829.467755,205,1614383829,466312885,base_imu_link,0.06892028308964794,0.06410037975075701,-0.6598068960835651,0.745517267254906,0.0025,0.0,0.0,0.0,0.0025,0.0,0.0,0.0,0.0025,-0.01,-0.05,0.02,0.02,0.0,0.0,0.0,0.02,0.0,0.0,0.0,0.02,-3.7684151562499997,-0.090782109375,9.360899531249999,0.04,0.0,0.0,0.0,0.04,0.0,0.0,0.0,0.04
1614383829.4866736,206,1614383829,485877990,base_imu_link,0.07380506373505404,0.07172998422928258,-0.6586063356264495,0.7454162036085825,0.0025,0.0,0.0,0.0,0.0025,0.0,0.0,0.0,0.0025,0.0,-0.1,0.01,0.02,0.0,0.0,0.0,0.02,0.0,0.0,0.0,0.02,-0.44050390624999997,0.10533789062499999,10.01207921875,0.04,0.0,0.0,0.0,0.04,0.0,0.0,0.0,0.04
1614383829.506881,207,1614383829,506201982,base_imu_link,0.06788972306931082,0.06537539292466202,-0.6585894892268677,0.7465768066189922,0.0025,0.0,0.0,0.0,0.0025,0.0,0.0,0.0,0.0025,0.02,-0.1,0.0,0.02,0.0,0.0,0.0,0.02,0.0,0.0,0.0,0.02,-1.996823359375,-0.416755,9.006198125,0.04,0.0,0.0,0.0,0.04,0.0,0.0,0.0,0.04
1614383829.5267723,208,1614383829,525867938,base_imu_link,0.06791631086297104,0.06928697882636069,-0.658566047075619,0.7462422200084051,0.0025,0.0,0.0,0.0,0.0025,0.0,0.0,0.0,0.0025,0.01,0.13,-0.03,0.02,0.0,0.0,0.0,0.02,0.0,0.0,0.0,0.02,-2.7387851562499996,0.05286046874999999,10.275232421875,0.04,0.0,0.0,0.0,0.04,0.0,0.0,0.0,0.04
1614383829.5469224,209,1614383829,545984983,base_imu_link,0.06880082148634045,0.07059306195748727,-0.6582629604127288,0.7463061982289446,0.0025,0.0,0.0,0.0,0.0025,0.0,0.0,0.0,0.0025,0.01,-0.18,-0.02,0.02,0.0,0.0,0.0,0.02,0.0,0.0,0.0,0.02,-1.27861046875,-0.11989367187499998,9.346343749999999,0.04,0.0,0.0,0.0,0.04,0.0,0.0,0.0,0.04
1614383829.5671024,210,1614383829,566241979,base_imu_link,0.06663911990937761,0.06949008248528386,-0.6581446755328052,0.746710079081373,0.0025,0.0,0.0,0.0,0.0025,0.0,0.0,0.0,0.0025,0.03,0.03,-0.02,0.02,0.0,0.0,0.0,0.02,0.0,0.0,0.0,0.02,-2.6188914843749997,-0.047880859374999994,9.20768078125,0.04,0.0,0.0,0.0,0.04,0.0,0.0,0.0,0.04
1614383829.5871887,211,1614383829,586306095,base_imu_link,0.06980574395919126,0.07387991848722034,-0.6571239560657955,0.7468982675833864,0.0025,0.0,0.0,0.0,0.0025,0.0,0.0,0.0,0.0025,0.03,0.1,-0.03,0.02,0.0,0.0,0.0,0.02,0.0,0.0,0.0,0.02,-1.69996203125,-0.15321875,10.26565625,0.04,0.0,0.0,0.0,0.04,0.0,0.0,0.0,0.04
1614383829.6062999,212,1614383829,605643987,base_imu_link,0.06659591752015875,0.07196266444234103,-0.6571382805148696,0.7473657999788109,0.0025,0.0,0.0,0.0,0.0025,0.0,0.0,0.0,0.0025,0.0,-0.2,-0.04,0.02,0.0,0.0,0.0,0.02,0.0,0.0,0.0,0.02,-2.58556640625,0.11989367187499998,9.284290156249998,0.04,0.0,0.0,0.0,0.04,0.0,0.0,0.0,0.04
1614383829.626723,213,1614383829,626090049,base_imu_link,0.0696085226514284,0.07474818415859238,-0.6568426102589616,0.7470777388515017,0.0025,0.0,0.0,0.0,0.0025,0.0,0.0,0.0,0.0025,0.02,0.01,-0.06,0.02,0.0,0.0,0.0,0.02,0.0,0.0,0.0,0.02,-1.455578125,0.19650304687499998,10.332689453124999,0.04,0.0,0.0,0.0,0.04,0.0,0.0,0.0,0.04
1614383829.6465962,214,1614383829,645972013,base_imu_link,0.06787712077817225,0.07176283692685226,-0.6569152026756804,0.7474658575511294,0.0025,0.0,0.0,0.0,0.0025,0.0,0.0,0.0,0.0025,0.03,-0.06,-0.06,0.02,0.0,0.0,0.0,0.02,0.0,0.0,0.0,0.02,-0.9242921093749998,0.13406640625,9.399204218749999,0.04,0.0,0.0,0.0,0.04,0.0,0.0,0.0,0.04
1614383829.668128,215,1614383829,666466951,base_imu_link,0.06554251804418744,0.06791717431827275,-0.6572399400824194,0.7477480169960375,0.0025,0.0,0.0,0.0,0.0025,0.0,0.0,0.0,0.0025,0.06,-0.02,-0.05,0.02,0.0,0.0,0.0,0.02,0.0,0.0,0.0,0.02,-4.433767578125,0.6511796875,9.719814453124998,0.04,0.0,0.0,0.0,0.04,0.0,0.0,0.0,0.04
1614383829.6867416,216,1614383829,686048030,base_imu_link,0.07360971789832382,0.07355024442450546,-0.6562391970755056,0.7473433529494461,0.0025,0.0,0.0,0.0,0.0025,0.0,0.0,0.0,0.0025,0.0,-0.16,-0.03,0.02,0.0,0.0,0.0,0.02,0.0,0.0,0.0,0.02,-0.10533789062499999,0.0720128125,9.624052734374999,0.04,0.0,0.0,0.0,0.04,0.0,0.0,0.0,0.04
1614383829.7071068,217,1614383829,706267118,base_imu_link,0.06747616937462397,0.06634409520874687,-0.6564967080323506,0.7483698951321777,0.0025,0.0,0.0,0.0,0.0025,0.0,0.0,0.0,0.0025,0.06,-0.04,-0.01,0.02,0.0,0.0,0.0,0.02,0.0,0.0,0.0,0.02,-3.7059785156249996,-0.067033203125,9.336767578124999,0.04,0.0,0.0,0.0,0.04,0.0,0.0,0.0,0.04
1614383829.7272332,218,1614383829,726260900,base_imu_link,0.07293325782171607,0.07403216462816972,-0.6558606203286121,0.7476943394236357,0.0025,0.0,0.0,0.0,0.0025,0.0,0.0,0.0,0.0025,0.02,-0.02,-0.03,0.02,0.0,0.0,0.0,0.02,0.0,0.0,0.0,0.02,-0.622451171875,0.26353624999999997,9.940066406249999,0.04,0.0,0.0,0.0,0.04,0.0,0.0,0.0,0.04
1614383829.746719,219,1614383829,746085882,base_imu_link,0.06782304925012551,0.06662749412129361,-0.655699444991816,0.7490120485379101,0.0025,0.0,0.0,0.0,0.0025,0.0,0.0,0.0,0.0025,0.04,-0.21,-0.01,0.02,0.0,0.0,0.0,0.02,0.0,0.0,0.0,0.02,-2.58556640625,0.22025195312499998,8.647283203125,0.04,0.0,0.0,0.0,0.04,0.0,0.0,0.0,0.04
1614383829.7674346,220,1614383829,766774892,base_imu_link,0.07113572619996975,0.07042229005855437,-0.6554027166993015,0.748617184189681,0.0025,0.0,0.0,0.0,0.0025,0.0,0.0,0.0,0.0025,-0.03,0.07,-0.03,0.02,0.0,0.0,0.0,0.02,0.0,0.0,0.0,0.02,-1.2640546874999998,0.335166015625,10.390146484374998,0.04,0.0,0.0,0.0,0.04,0.0,0.0,0.0,0.04
1614383829.7876363,221,1614383829,786434888,base_imu_link,0.06881275147726665,0.06622662177443125,-0.6554877467540167,0.7491426123628374,0.0025,0.0,0.0,0.0,0.0025,0.0,0.0,0.0,0.0025,0.02,-0.13,-0.0,0.02,0.0,0.0,0.0,0.02,0.0,0.0,0.0,0.02,-1.1491406249999998,0.17237109374999998,9.006198125,0.04,0.0,0.0,0.0,0.04,0.0,0.0,0.0,0.04
1614383829.8083797,222,1614383829,807099103,base_imu_link,0.06805255728543756,0.06493826114352534,-0.6550047117848898,0.7497470901751876,0.0025,0.0,0.0,0.0,0.0025,0.0,0.0,0.0,0.0025,0.03,0.08,0.01,0.02,0.0,0.0,0.0,0.02,0.0,0.0,0.0,0.02,-4.477051874999999,0.1149140625,9.738966796875,0.04,0.0,0.0,0.0,0.04,0.0,0.0,0.0,0.04
1614383829.827478,223,1614383829,826658010,base_imu_link,0.07397974747492637,0.07176357174331875,-0.6537647289517258,0.7496456935865531,0.0025,0.0,0.0,0.0,0.0025,0.0,0.0,0.0,0.0025,0.02,-0.22,0.02,0.02,0.0,0.0,0.0,0.02,0.0,0.0,0.0,0.02,0.1578153125,0.229828125,9.465854375,0.04,0.0,0.0,0.0,0.04,0.0,0.0,0.0,0.04
1614383829.8479624,224,1614383829,847049951,base_imu_link,0.06811872658002137,0.06432353908951795,-0.6538240186395654,0.750823863537997,0.0025,0.0,0.0,0.0,0.0025,0.0,0.0,0.0,0.0025,0.03,0.03,0.02,0.02,0.0,0.0,0.0,0.02,0.0,0.0,0.0,0.02,-3.4619776562499993,-0.296861328125,9.188528437499999,0.04,0.0,0.0,0.0,0.04,0.0,0.0,0.0,0.04
1614383829.8676646,225,1614383829,866786003,base_imu_link,0.07179572895652915,0.07252139462920916,-0.6532090582004944,0.750269249609404,0.0025,0.0,0.0,0.0,0.0025,0.0,0.0,0.0,0.0025,-0.01,-0.05,-0.0,0.02,0.0,0.0,0.0,0.02,0.0,0.0,0.0,0.02,-0.75153796875,0.34474218749999996,10.05498046875,0.04,0.0,0.0,0.0,0.04,0.0,0.0,0.0,0.04
1614383829.8876677,226,1614383829,886882066,base_imu_link,0.06800384217105059,0.06661484566763737,-0.6534328379718571,0.7509750102677827,0.0025,0.0,0.0,0.0,0.0025,0.0,0.0,0.0,0.0025,0.01,-0.09,-0.04,0.02,0.0,0.0,0.0,0.02,0.0,0.0,0.0,0.02,-1.1012597656249998,-0.17237109374999998,9.0828075,0.04,0.0,0.0,0.0,0.04,0.0,0.0,0.0,0.04
1614383829.9080513,227,1614383829,907108068,base_imu_link,0.06597046721366909,0.06584971307605897,-0.6535369790327067,0.7511332303794143,0.0025,0.0,0.0,0.0,0.0025,0.0,0.0,0.0,0.0025,0.06,0.06,-0.04,0.02,0.0,0.0,0.0,0.02,0.0,0.0,0.0,0.02,-4.304680781249999,0.75153796875,9.806,0.04,0.0,0.0,0.0,0.04,0.0,0.0,0.0,0.04
1614383829.9279137,228,1614383829,926992893,base_imu_link,0.07336289671491625,0.07094066224878517,-0.6524716705840695,0.7509101323797234,0.0025,0.0,0.0,0.0,0.0025,0.0,0.0,0.0,0.0025,-0.02,-0.18,-0.03,0.02,0.0,0.0,0.0,0.02,0.0,0.0,0.0,0.02,-0.67492859375,-0.033708125,9.599920781249999,0.04,0.0,0.0,0.0,0.04,0.0,0.0,0.0,0.04
1614383829.9475935,229,1614383829,946857929,base_imu_link,0.06820804522965492,0.06667371486683367,-0.6529757619870977,0.7513487423089057,0.0025,0.0,0.0,0.0,0.0025,0.0,0.0,0.0,0.0025,0.01,-0.05,-0.04,0.02,0.0,0.0,0.0,0.02,0.0,0.0,0.0,0.02,-2.791262578125,0.368874140625,8.90583984375,0.04,0.0,0.0,0.0,0.04,0.0,0.0,0.0,0.04
1614383829.968201,230,1614383829,967319965,base_imu_link,0.0725002974387883,0.07042112639946346,-0.6527663875247385,0.7507866642035013,0.0025,0.0,0.0,0.0,0.0025,0.0,0.0,0.0,0.0025,-0.02,0.04,-0.06,0.02,0.0,0.0,0.0,0.02,0.0,0.0,0.0,0.02,-1.5850479687499999,-0.11031749999999999,10.28940515625,0.04,0.0,0.0,0.0,0.04,0.0,0.0,0.0,0.04
1614383829.9875796,231,1614383829,986934900,base_imu_link,0.06880448786242077,0.06891485960497808,-0.652981038566731,0.7510875101131224,0.0025,0.0,0.0,0.0,0.0025,0.0,0.0,0.0,0.0025,-0.03,-0.16,-0.05,0.02,0.0,0.0,0.0,0.02,0.0,0.0,0.0,0.02,-1.441405390625,0.01915234375,8.953720703124999,0.04,0.0,0.0,0.0,0.04,0.0,0.0,0.0,0.04
1614383830.007997,232,1614383830,7260084,base_imu_link,0.06835334957979927,0.06872788711044323,-0.6533162397234937,0.7508543054735123,0.0025,0.0,0.0,0.0,0.0025,0.0,0.0,0.0,0.0025,0.04,0.06,-0.06,0.02,0.0,0.0,0.0,0.02,0.0,0.0,0.0,0.02,-3.3853682812499994,-0.10074132812499999,10.332689453124999,0.04,0.0,0.0,0.0,0.04,0.0,0.0,0.0,0.04
1614383830.027737,233,1614383830,26952981,base_imu_link,0.07014580524699819,0.0721179647969684,-0.6530293639444978,0.7506205532664543,0.0025,0.0,0.0,0.0,0.0025,0.0,0.0,0.0,0.0025,0.02,-0.2,-0.04,0.02,0.0,0.0,0.0,0.02,0.0,0.0,0.0,0.02,-0.67033203125,-0.0720128125,9.312635624999999,0.04,0.0,0.0,0.0,0.04,0.0,0.0,0.0,0.04
1614383830.048101,234,1614383830,47080039,base_imu_link,0.06665417566130953,0.06870703823337783,-0.6535549179910254,0.7508012606101911,0.0025,0.0,0.0,0.0,0.0025,0.0,0.0,0.0,0.0025,0.06,0.05,-0.06,0.02,0.0,0.0,0.0,0.02,0.0,0.0,0.0,0.02,-3.5290108593749996,0.15321875,9.758119140624999,0.04,0.0,0.0,0.0,0.04,0.0,0.0,0.0,0.04
1614383830.067756,235,1614383830,66986083,base_imu_link,0.07137102736582845,0.07392266604697359,-0.6535222372803046,0.7499001942108022,0.0025,0.0,0.0,0.0,0.0025,0.0,0.0,0.0,0.0025,0.0,-0.07,-0.05,0.02,0.0,0.0,0.0,0.02,0.0,0.0,0.0,0.02,-0.48838476562499994,-0.014555781249999998,9.777271484375,0.04,0.0,0.0,0.0,0.04,0.0,0.0,0.0,0.04
1614383830.087915,236,1614383830,87270975,base_imu_link,0.06551095383633707,0.0680854178647442,-0.6541147567688766,0.7504709026863264,0.0025,0.0,0.0,0.0,0.0025,0.0,0.0,0.0,0.0025,0.02,-0.07,-0.05,0.02,0.0,0.0,0.0,0.02,0.0,0.0,0.0,0.02,-3.9407862499999995,0.42633117187499997,9.360899531249999,0.04,0.0,0.0,0.0,0.04,0.0,0.0,0.0,0.04
1614383830.1078835,237,1614383830,107106924,base_imu_link,0.07289064513023982,0.0744383450356218,-0.6536880370782131,0.7495584278905068,0.0025,0.0,0.0,0.0,0.0025,0.0,0.0,0.0,0.0025,-0.01,-0.09,-0.06,0.02,0.0,0.0,0.0,0.02,0.0,0.0,0.0,0.02,-0.7182128906249999,0.162794921875,10.231948124999999,0.04,0.0,0.0,0.0,0.04,0.0,0.0,0.0,0.04
1614383830.127571,238,1614383830,126924037,base_imu_link,0.06843624736507115,0.06841700176677896,-0.6540588744723268,0.7502283536629528,0.0025,0.0,0.0,0.0,0.0025,0.0,0.0,0.0,0.0025,0.05,-0.11,-0.03,0.02,0.0,0.0,0.0,0.02,0.0,0.0,0.0,0.02,-1.2161738281249999,0.009576171875,8.48908484375,0.04,0.0,0.0,0.0,0.04,0.0,0.0,0.0,0.04
1614383830.1481771,239,1614383830,147358894,base_imu_link,0.06820675643832491,0.06849888411103838,-0.6543078948604562,0.7500246129127925,0.0025,0.0,0.0,0.0,0.0025,0.0,0.0,0.0,0.0025,0.03,0.12,-0.06,0.02,0.0,0.0,0.0,0.02,0.0,0.0,0.0,0.02,-3.7684151562499997,-0.13406640625,10.614994999999999,0.04,0.0,0.0,0.0,0.04,0.0,0.0,0.0,0.04
1614383830.1678925,240,1614383830,167135953,base_imu_link,0.06957976481888635,0.07145247824697704,-0.6537969704945266,0.7500684775754097,0.0025,0.0,0.0,0.0,0.0025,0.0,0.0,0.0,0.0025,0.03,-0.33,-0.02,0.02,0.0,0.0,0.0,0.02,0.0,0.0,0.0,0.02,-0.296861328125,-0.004979609375,8.78632921875,0.04,0.0,0.0,0.0,0.04,0.0,0.0,0.0,0.04
1614383830.1883054,241,1614383830,187585115,base_imu_link,0.06712171387578514,0.06898491186351416,-0.654184983652225,0.7501851535624381,0.0025,0.0,0.0,0.0,0.0025,0.0,0.0,0.0,0.0025,0.03,0.22,-0.05,0.02,0.0,0.0,0.0,0.02,0.0,0.0,0.0,0.02,-3.7684151562499997,0.41177539062499996,9.978371093749999,0.04,0.0,0.0,0.0,0.04,0.0,0.0,0.0,0.04
1614383830.208851,242,1614383830,207648038,base_imu_link,0.0726440191483873,0.07292351068618354,-0.6540246118861845,0.7494376659324621,0.0025,0.0,0.0,0.0,0.0025,0.0,0.0,0.0,0.0025,0.03,-0.14,-0.02,0.02,0.0,0.0,0.0,0.02,0.0,0.0,0.0,0.02,-1.407697265625,0.55082140625,9.624052734374999,0.04,0.0,0.0,0.0,0.04,0.0,0.0,0.0,0.04
1614383830.2284527,243,1614383830,227646112,base_imu_link,0.0717224845163813,0.06900714352395648,-0.6541152906252501,0.7498180352110144,0.0025,0.0,0.0,0.0,0.0025,0.0,0.0,0.0,0.0025,-0.01,-0.09,-0.02,0.02,0.0,0.0,0.0,0.02,0.0,0.0,0.0,0.02,-2.8295672656249997,-0.047880859374999994,8.915416015624999,0.04,0.0,0.0,0.0,0.04,0.0,0.0,0.0,0.04
1614383830.2484415,244,1614383830,247653007,base_imu_link,0.07451170553818302,0.07382437587507283,-0.6542234824772564,0.7489923913096703,0.0025,0.0,0.0,0.0,0.0025,0.0,0.0,0.0,0.0025,0.0,0.03,-0.04,0.02,0.0,0.0,0.0,0.02,0.0,0.0,0.0,0.02,-1.0342265625,0.05286046874999999,10.581669921875,0.04,0.0,0.0,0.0,0.04,0.0,0.0,0.0,0.04
1614383830.2683177,245,1614383830,267488956,base_imu_link,0.06960213930835367,0.06911358056976259,-0.655242910669965,0.7490230858934056,0.0025,0.0,0.0,0.0,0.0025,0.0,0.0,0.0,0.0025,-0.01,-0.19,-0.05,0.02,0.0,0.0,0.0,0.02,0.0,0.0,0.0,0.02,-1.9106378124999999,0.047880859374999994,8.8820909375,0.04,0.0,0.0,0.0,0.04,0.0,0.0,0.0,0.04
1614383830.2884133,246,1614383830,287600040,base_imu_link,0.07056631060948339,0.07091854858924605,-0.6555431846511829,0.7485012280085759,0.0025,0.0,0.0,0.0,0.0025,0.0,0.0,0.0,0.0025,0.01,0.09,-0.06,0.02,0.0,0.0,0.0,0.02,0.0,0.0,0.0,0.02,-2.805818359375,0.067033203125,10.581669921875,0.04,0.0,0.0,0.0,0.04,0.0,0.0,0.0,0.04
1614383830.3083034,247,1614383830,307367086,base_imu_link,0.07132202761576553,0.07209903100551585,-0.6558304353806981,0.7480650627674075,0.0025,0.0,0.0,0.0,0.0025,0.0,0.0,0.0,0.0025,0.02,-0.15,-0.04,0.02,0.0,0.0,0.0,0.02,0.0,0.0,0.0,0.02,-0.9051397656249999,0.004979609375,9.29348328125,0.04,0.0,0.0,0.0,0.04,0.0,0.0,0.0,0.04
1614383830.3281043,248,1614383830,327521085,base_imu_link,0.06830011448832149,0.0688559925836677,-0.6563492828407785,0.7481975444764541,0.0025,0.0,0.0,0.0,0.0025,0.0,0.0,0.0,0.0025,0.04,-0.02,-0.03,0.02,0.0,0.0,0.0,0.02,0.0,0.0,0.0,0.02,-3.040243046875,-0.05286046874999999,9.140264531249999,0.04,0.0,0.0,0.0,0.04,0.0,0.0,0.0,0.04
1614383830.3495266,249,1614383830,348845005,base_imu_link,0.07248775305910994,0.07453038355028764,-0.6566445192956587,0.7469998145001523,0.0025,0.0,0.0,0.0,0.0025,0.0,0.0,0.0,0.0025,0.03,0.06,-0.04,0.02,0.0,0.0,0.0,0.02,0.0,0.0,0.0,0.02,-0.9193125,-0.124490234375,10.13618640625,0.04,0.0,0.0,0.0,0.04,0.0,0.0,0.0,0.04
1614383830.3684504,250,1614383830,367460966,base_imu_link,0.06709613755447721,0.07001874096696173,-0.6573913398829159,0.7472831528180042,0.0025,0.0,0.0,0.0,0.0025,0.0,0.0,0.0,0.0025,0.02,-0.16,-0.05,0.02,0.0,0.0,0.0,0.02,0.0,0.0,0.0,0.02,-2.887024296875,0.033708125,9.28888671875,0.04,0.0,0.0,0.0,0.04,0.0,0.0,0.0,0.04
1614383830.3883944,251,1614383830,387691974,base_imu_link,0.07083589937671038,0.07459005474259976,-0.6573902143850746,0.7464962860749773,0.0025,0.0,0.0,0.0,0.0025,0.0,0.0,0.0,0.0025,0.01,0.03,-0.07,0.02,0.0,0.0,0.0,0.02,0.0,0.0,0.0,0.02,-1.613776484375,0.21067578124999997,10.318133671875,0.04,0.0,0.0,0.0,0.04,0.0,0.0,0.0,0.04
1614383830.4084463,252,1614383830,407721996,base_imu_link,0.06922566816587772,0.07137787884359717,-0.6580013165914405,0.7464229850712712,0.0025,0.0,0.0,0.0,0.0025,0.0,0.0,0.0,0.0025,0.04,-0.15,-0.05,0.02,0.0,0.0,0.0,0.02,0.0,0.0,0.0,0.02,-0.9913253124999999,0.24898046875,9.1211121875,0.04,0.0,0.0,0.0,0.04,0.0,0.0,0.0,0.04
1614383830.4288373,253,1614383830,428206920,base_imu_link,0.06821537966501452,0.06844379638980613,-0.6586462227764617,0.7462219923958343,0.0025,0.0,0.0,0.0,0.0025,0.0,0.0,0.0,0.0025,0.06,0.06,-0.06,0.02,0.0,0.0,0.0,0.02,0.0,0.0,0.0,0.02,-4.11775390625,0.06243664062499999,10.150742187499999,0.04,0.0,0.0,0.0,0.04,0.0,0.0,0.0,0.04
1614383830.4487123,254,1614383830,447911024,base_imu_link,0.07289183365272796,0.07403899268770373,-0.6586944757088373,0.7452023858115278,0.0025,0.0,0.0,0.0,0.0025,0.0,0.0,0.0,0.0025,0.01,-0.14,-0.03,0.02,0.0,0.0,0.0,0.02,0.0,0.0,0.0,0.02,-0.44050390624999997,0.36389453125,9.437508906249999,0.04,0.0,0.0,0.0,0.04,0.0,0.0,0.0,0.04
1614383830.469197,255,1614383830,468434095,base_imu_link,0.06957881766201127,0.06746060958894745,-0.6595887568777963,0.7453526186222517,0.0025,0.0,0.0,0.0,0.0025,0.0,0.0,0.0,0.0025,0.06,-0.01,-0.03,0.02,0.0,0.0,0.0,0.02,0.0,0.0,0.0,0.02,-4.180190546874999,-0.0720128125,9.705641718749998,0.04,0.0,0.0,0.0,0.04,0.0,0.0,0.0,0.04
1614383830.4887018,256,1614383830,487960100,base_imu_link,0.07475420725522892,0.07481695838144418,-0.6593491488261358,0.7443607533840306,0.0025,0.0,0.0,0.0,0.0025,0.0,0.0,0.0,0.0025,0.01,-0.12,-0.04,0.02,0.0,0.0,0.0,0.02,0.0,0.0,0.0,0.02,-0.124490234375,0.392623046875,9.437508906249999,0.04,0.0,0.0,0.0,0.04,0.0,0.0,0.0,0.04
1614383830.5085688,257,1614383830,507662057,base_imu_link,0.06979096657099175,0.06645616631921478,-0.6600018757280187,0.7450572615435249,0.0025,0.0,0.0,0.0,0.0025,0.0,0.0,0.0,0.0025,0.06,-0.09,-0.01,0.02,0.0,0.0,0.0,0.02,0.0,0.0,0.0,0.02,-3.23674609375,0.01915234375,8.94414453125,0.04,0.0,0.0,0.0,0.04,0.0,0.0,0.0,0.04
1614383830.5287051,258,1614383830,527930974,base_imu_link,0.07382557533570626,0.07250412686730064,-0.659947693809081,0.7441518510691469,0.0025,0.0,0.0,0.0,0.0025,0.0,0.0,0.0,0.0025,-0.03,-0.03,-0.04,0.02,0.0,0.0,0.0,0.02,0.0,0.0,0.0,0.02,-0.9288886718749999,0.349721796875,10.294384765624999,0.04,0.0,0.0,0.0,0.04,0.0,0.0,0.0,0.04
1614383830.5486996,259,1614383830,547914981,base_imu_link,0.06968622656326909,0.06630452702037182,-0.6608509362409919,0.7443276023320523,0.0025,0.0,0.0,0.0,0.0025,0.0,0.0,0.0,0.0025,0.02,-0.22,-0.02,0.02,0.0,0.0,0.0,0.02,0.0,0.0,0.0,0.02,-1.1587167968749998,-0.023748906249999997,8.637707031249999,0.04,0.0,0.0,0.0,0.04,0.0,0.0,0.0,0.04
1614383830.5689304,260,1614383830,568059921,base_imu_link,0.0691632059947672,0.0664045155070395,-0.6619939203873867,0.743351155663956,0.0025,0.0,0.0,0.0,0.0025,0.0,0.0,0.0,0.0025,0.01,0.14,-0.05,0.02,0.0,0.0,0.0,0.02,0.0,0.0,0.0,0.02,-3.2034210156249996,0.349721796875,10.495484374999998,0.04,0.0,0.0,0.0,0.04,0.0,0.0,0.0,0.04
1614383830.5886374,261,1614383830,587833881,base_imu_link,0.07096252638960603,0.0673588943662054,-0.662058491214221,0.7430381237926599,0.0025,0.0,0.0,0.0,0.0025,0.0,0.0,0.0,0.0025,0.01,-0.3,-0.02,0.02,0.0,0.0,0.0,0.02,0.0,0.0,0.0,0.02,-0.483788203125,-0.014555781249999998,8.86753515625,0.04,0.0,0.0,0.0,0.04,0.0,0.0,0.0,0.04
1614383830.6093247,262,1614383830,608232975,base_imu_link,0.06855098176263676,0.06508025928979089,-0.6626805378336615,0.7429130686201725,0.0025,0.0,0.0,0.0,0.0025,0.0,0.0,0.0,0.0025,0.04,0.16,-0.02,0.02,0.0,0.0,0.0,0.02,0.0,0.0,0.0,0.02,-4.304680781249999,0.3064375,9.853880859375,0.04,0.0,0.0,0.0,0.04,0.0,0.0,0.0,0.04
1614383830.6285532,263,1614383830,628015995,base_imu_link,0.07471614738987592,0.07086047231968215,-0.6627441326657143,0.7417320981318092,0.0025,0.0,0.0,0.0,0.0025,0.0,0.0,0.0,0.0025,0.01,-0.18,-0.01,0.02,0.0,0.0,0.0,0.02,0.0,0.0,0.0,0.02,-0.6607558593749999,-0.01915234375,9.729390624999999,0.04,0.0,0.0,0.0,0.04,0.0,0.0,0.0,0.04
1614383830.648922,264,1614383830,648200035,base_imu_link,0.06959568381344548,0.0659914572783613,-0.6639608141374548,0.7415912658943237,0.0025,0.0,0.0,0.0,0.0025,0.0,0.0,0.0,0.0025,0.04,-0.06,-0.03,0.02,0.0,0.0,0.0,0.02,0.0,0.0,0.0,0.02,-2.0014199218749997,-0.35431835937499995,8.819654296875,0.04,0.0,0.0,0.0,0.04,0.0,0.0,0.0,0.04
1614383830.6702168,265,1614383830,669313907,base_imu_link,0.06986245508217155,0.06924018224972123,-0.6645689176430168,0.740724772256677,0.0025,0.0,0.0,0.0,0.0025,0.0,0.0,0.0,0.0025,0.03,0.1,-0.06,0.02,0.0,0.0,0.0,0.02,0.0,0.0,0.0,0.02,-2.1404659374999997,0.19152343749999998,10.524212890625,0.04,0.0,0.0,0.0,0.04,0.0,0.0,0.0,0.04
1614383830.6891751,266,1614383830,688399076,base_imu_link,0.06869794160621907,0.06806074064856499,-0.6653684622708474,0.7402250588954453,0.0025,0.0,0.0,0.0,0.0025,0.0,0.0,0.0,0.0025,-0.02,-0.22,-0.07,0.02,0.0,0.0,0.0,0.02,0.0,0.0,0.0,0.02,-1.446001953125,0.023748906249999997,8.98704578125,0.04,0.0,0.0,0.0,0.04,0.0,0.0,0.0,0.04
1614383830.7100563,267,1614383830,709108114,base_imu_link,0.06833683686314725,0.06802749020764823,-0.6661353370551538,0.7395715313815184,0.0025,0.0,0.0,0.0,0.0025,0.0,0.0,0.0,0.0025,0.02,0.08,-0.07,0.02,0.0,0.0,0.0,0.02,0.0,0.0,0.0,0.02,-3.1172354687499997,0.46923242187499997,10.222371953125,0.04,0.0,0.0,0.0,0.04,0.0,0.0,0.0,0.04
1614383830.730742,268,1614383830,729734897,base_imu_link,0.07199043793173993,0.06987045332405517,-0.6667058362772312,0.7385383026441925,0.0025,0.0,0.0,0.0,0.0025,0.0,0.0,0.0,0.0025,-0.01,-0.12,-0.05,0.02,0.0,0.0,0.0,0.02,0.0,0.0,0.0,0.02,-0.9913253124999999,-0.162794921875,9.63362890625,0.04,0.0,0.0,0.0,0.04,0.0,0.0,0.0,0.04
1614383830.749633,269,1614383830,748445034,base_imu_link,0.06803705894631965,0.06734463199610045,-0.6679826345941552,0.7379938069061935,0.0025,0.0,0.0,0.0,0.0025,0.0,0.0,0.0,0.0025,0.03,-0.01,-0.05,0.02,0.0,0.0,0.0,0.02,0.0,0.0,0.0,0.02,-3.6006406249999996,0.42633117187499997,9.20768078125,0.04,0.0,0.0,0.0,0.04,0.0,0.0,0.0,0.04
1614383830.7695858,270,1614383830,768271923,base_imu_link,0.07542757995084526,0.0729442695483084,-0.6681039238812947,0.736632174573742,0.0025,0.0,0.0,0.0,0.0025,0.0,0.0,0.0,0.0025,0.01,-0.03,-0.03,0.02,0.0,0.0,0.0,0.02,0.0,0.0,0.0,0.02,-0.8955635937499998,0.067033203125,9.954622187499998,0.04,0.0,0.0,0.0,0.04,0.0,0.0,0.0,0.04
1614383830.789284,271,1614383830,788551092,base_imu_link,0.07021532823032936,0.06758478612622361,-0.6691291999017679,0.736728049014424,0.0025,0.0,0.0,0.0,0.0025,0.0,0.0,0.0,0.0025,0.01,-0.18,-0.02,0.02,0.0,0.0,0.0,0.02,0.0,0.0,0.0,0.02,-2.2599765625,0.24438390624999998,8.86753515625,0.04,0.0,0.0,0.0,0.04,0.0,0.0,0.0,0.04
1614383830.8096447,272,1614383830,808638095,base_imu_link,0.07307062482143094,0.0699066602841569,-0.6698329939953628,0.7355932998548378,0.0025,0.0,0.0,0.0,0.0025,0.0,0.0,0.0,0.0025,0.0,0.1,-0.05,0.02,0.0,0.0,0.0,0.02,0.0,0.0,0.0,0.02,-1.2736308593749999,0.06243664062499999,10.452200078125,0.04,0.0,0.0,0.0,0.04,0.0,0.0,0.0,0.04
1614383830.829655,273,1614383830,828582048,base_imu_link,0.06883707083460933,0.06600061411416504,-0.6709130208240451,0.7353781986870555,0.0025,0.0,0.0,0.0,0.0025,0.0,0.0,0.0,0.0025,-0.01,-0.23,-0.03,0.02,0.0,0.0,0.0,0.02,0.0,0.0,0.0,0.02,-1.920213984375,0.19152343749999998,8.77637,0.04,0.0,0.0,0.0,0.04,0.0,0.0,0.0,0.04
1614383830.851288,274,1614383830,850605964,base_imu_link,0.07063862249806797,0.06799507406171952,-0.6713213183319515,0.7346526679104675,0.0025,0.0,0.0,0.0,0.0025,0.0,0.0,0.0,0.0025,-0.02,0.14,-0.06,0.02,0.0,0.0,0.0,0.02,0.0,0.0,0.0,0.02,-2.27912890625,0.229828125,10.691604374999999,0.04,0.0,0.0,0.0,0.04,0.0,0.0,0.0,0.04
1614383830.869619,275,1614383830,868855953,base_imu_link,0.07005274122909029,0.06687789572869737,-0.6718619132810347,0.7343170500482327,0.0025,0.0,0.0,0.0,0.0025,0.0,0.0,0.0,0.0025,-0.0,-0.22,-0.03,0.02,0.0,0.0,0.0,0.02,0.0,0.0,0.0,0.02,-0.9001601562499999,-0.11031749999999999,9.073614374999998,0.04,0.0,0.0,0.0,0.04,0.0,0.0,0.0,0.04
1614383830.8898754,276,1614383830,889112949,base_imu_link,0.06806938058072971,0.06574220462438596,-0.6725811556207721,0.7339476214705705,0.0025,0.0,0.0,0.0,0.0025,0.0,0.0,0.0,0.0025,0.04,0.13,-0.04,0.02,0.0,0.0,0.0,0.02,0.0,0.0,0.0,0.02,-4.0219921874999995,-0.30184093749999996,10.600822265624998,0.04,0.0,0.0,0.0,0.04,0.0,0.0,0.0,0.04
1614383830.9104953,277,1614383830,908833026,base_imu_link,0.07065374943838576,0.07043429095566453,-0.6731224412752114,0.7327709310552448,0.0025,0.0,0.0,0.0,0.0025,0.0,0.0,0.0,0.0025,0.02,-0.21,-0.01,0.02,0.0,0.0,0.0,0.02,0.0,0.0,0.0,0.02,-0.45965625,-0.023748906249999997,9.02535046875,0.04,0.0,0.0,0.0,0.04,0.0,0.0,0.0,0.04
1614383830.9298549,278,1614383830,929223060,base_imu_link,0.06740291164833155,0.06704808591958791,-0.6739171251501102,0.7326643911814315,0.0025,0.0,0.0,0.0,0.0025,0.0,0.0,0.0,0.0025,0.04,0.09,-0.01,0.02,0.0,0.0,0.0,0.02,0.0,0.0,0.0,0.02,-4.213515624999999,-0.076609375,9.691085937499999,0.04,0.0,0.0,0.0,0.04,0.0,0.0,0.0,0.04
1614383830.9498122,279,1614383830,949173927,base_imu_link,0.07330974885747933,0.07411612434774846,-0.6739225739908359,0.7314101756878206,0.0025,0.0,0.0,0.0,0.0025,0.0,0.0,0.0,0.0025,0.02,-0.12,0.01,0.02,0.0,0.0,0.0,0.02,0.0,0.0,0.0,0.02,-0.13406640625,0.14862218749999997,9.82974890625,0.04,0.0,0.0,0.0,0.04,0.0,0.0,0.0,0.04
1614383830.9697757,280,1614383830,968923091,base_imu_link,0.06690067906887123,0.0660867426466797,-0.6748231538548233,0.7319634913080739,0.0025,0.0,0.0,0.0,0.0025,0.0,0.0,0.0,0.0025,0.04,-0.08,0.0,0.02,0.0,0.0,0.0,0.02,0.0,0.0,0.0,0.02,-3.0643749999999996,0.124490234375,8.891284062499999,0.04,0.0,0.0,0.0,0.04,0.0,0.0,0.0,0.04
1614383830.9900472,281,1614383830,989214897,base_imu_link,0.07150020256311508,0.07117186461645719,-0.675207795811822,0.7306960511699727,0.0025,0.0,0.0,0.0,0.0025,0.0,0.0,0.0,0.0025,-0.03,0.01,-0.03,0.02,0.0,0.0,0.0,0.02,0.0,0.0,0.0,0.02,-0.27770898437499997,0.41177539062499996,9.9975234375,0.04,0.0,0.0,0.0,0.04,0.0,0.0,0.0,0.04
1614383831.010816,282,1614383831,9814977,base_imu_link,0.06551423820849865,0.0629817556812856,-0.6760970481354659,0.7311866824182265,0.0025,0.0,0.0,0.0,0.0025,0.0,0.0,0.0,0.0025,-0.04,-0.18,-0.02,0.02,0.0,0.0,0.0,0.02,0.0,0.0,0.0,0.02,-1.5321874999999998,-0.23480773437499997,8.690567499999998,0.04,0.0,0.0,0.0,0.04,0.0,0.0,0.0,0.04
1614383831.0310304,283,1614383831,30116081,base_imu_link,0.06541969344746996,0.06519497585832328,-0.6765362975525009,0.7305946324234978,0.0025,0.0,0.0,0.0,0.0025,0.0,0.0,0.0,0.0025,-0.02,0.15,-0.03,0.02,0.0,0.0,0.0,0.02,0.0,0.0,0.0,0.02,-2.810414921875,0.17237109374999998,10.729909062499999,0.04,0.0,0.0,0.0,0.04,0.0,0.0,0.0,0.04
1614383831.0505314,284,1614383831,49484968,base_imu_link,0.0663553978219142,0.06598274992787068,-0.6769781551532845,0.7300300098880232,0.0025,0.0,0.0,0.0,0.0025,0.0,0.0,0.0,0.0025,-0.03,-0.22,-0.0,0.02,0.0,0.0,0.0,0.02,0.0,0.0,0.0,0.02,-1.1682929687499999,-0.34474218749999996,9.202701171874999,0.04,0.0,0.0,0.0,0.04,0.0,0.0,0.0,0.04
1614383831.070803,285,1614383831,69489002,base_imu_link,0.06423129682058408,0.06629163279893813,-0.677377394840989,0.7298216390927524,0.0025,0.0,0.0,0.0,0.0025,0.0,0.0,0.0,0.0025,0.03,0.11,-0.03,0.02,0.0,0.0,0.0,0.02,0.0,0.0,0.0,0.02,-3.2991827343749995,0.23480773437499997,10.088305546874999,0.04,0.0,0.0,0.0,0.04,0.0,0.0,0.0,0.04
1614383831.0900006,286,1614383831,89190959,base_imu_link,0.0684668392940128,0.06946874903964112,-0.6776807202035001,0.7288588521026691,0.0025,0.0,0.0,0.0,0.0025,0.0,0.0,0.0,0.0025,0.01,-0.12,-0.02,0.02,0.0,0.0,0.0,0.02,0.0,0.0,0.0,0.02,-0.722809453125,-0.18654382812499998,9.662357421874999,0.04,0.0,0.0,0.0,0.04,0.0,0.0,0.0,0.04
1614383831.1101286,287,1614383831,109200954,base_imu_link,0.06344703803459743,0.06571108540369885,-0.6787494819160899,0.7286670483961408,0.0025,0.0,0.0,0.0,0.0025,0.0,0.0,0.0,0.0025,0.02,-0.05,-0.03,0.02,0.0,0.0,0.0,0.02,0.0,0.0,0.0,0.02,-3.0643749999999996,0.014555781249999998,8.992025390624999,0.04,0.0,0.0,0.0,0.04,0.0,0.0,0.0,0.04
1614383831.1314518,288,1614383831,130114078,base_imu_link,0.06868167847558629,0.07104225543934552,-0.679104154050924,0.7273605522260924,0.0025,0.0,0.0,0.0,0.0025,0.0,0.0,0.0,0.0025,0.03,0.04,-0.04,0.02,0.0,0.0,0.0,0.02,0.0,0.0,0.0,0.02,-0.6799082031249999,-0.05745703125,10.222371953125,0.04,0.0,0.0,0.0,0.04,0.0,0.0,0.0,0.04
1614383831.1501765,289,1614383831,149334907,base_imu_link,0.06320050139183503,0.06569958487160718,-0.6801349426245306,0.7273965362803468,0.0025,0.0,0.0,0.0,0.0025,0.0,0.0,0.0,0.0025,0.02,-0.16,-0.05,0.02,0.0,0.0,0.0,0.02,0.0,0.0,0.0,0.02,-2.480228515625,0.11989367187499998,9.063655156249999,0.04,0.0,0.0,0.0,0.04,0.0,0.0,0.0,0.04
1614383831.1706705,290,1614383831,169711112,base_imu_link,0.06706605847374308,0.06910126468191422,-0.680347952692208,0.7265354927928005,0.0025,0.0,0.0,0.0,0.0025,0.0,0.0,0.0,0.0025,0.01,0.1,-0.07,0.02,0.0,0.0,0.0,0.02,0.0,0.0,0.0,0.02,-1.608796875,-0.014555781249999998,10.3805703125,0.04,0.0,0.0,0.0,0.04,0.0,0.0,0.0,0.04
1614383831.1898146,291,1614383831,189186096,base_imu_link,0.06482075528917938,0.06655955882827513,-0.6813243346511488,0.7260614614648647,0.0025,0.0,0.0,0.0,0.0025,0.0,0.0,0.0,0.0025,0.03,-0.19,-0.04,0.02,0.0,0.0,0.0,0.02,0.0,0.0,0.0,0.02,-1.560916015625,0.258556640625,8.967893437499999,0.04,0.0,0.0,0.0,0.04,0.0,0.0,0.0,0.04
1614383831.2112906,292,1614383831,210382938,base_imu_link,0.06628316112426555,0.06661405381416319,-0.6818929746223413,0.7253902960107156,0.0025,0.0,0.0,0.0,0.0025,0.0,0.0,0.0,0.0025,0.01,0.12,-0.06,0.02,0.0,0.0,0.0,0.02,0.0,0.0,0.0,0.02,-3.1938448437499996,-0.258556640625,10.744464843749999,0.04,0.0,0.0,0.0,0.04,0.0,0.0,0.0,0.04
1614383831.2300956,293,1614383831,229222059,base_imu_link,0.067369496581997,0.06892917880179453,-0.6822480521056348,0.724739756490608,0.0025,0.0,0.0,0.0,0.0025,0.0,0.0,0.0,0.0025,0.05,-0.21,-0.02,0.02,0.0,0.0,0.0,0.02,0.0,0.0,0.0,0.02,-0.8572589062499999,0.37347070312499997,9.020753906249999,0.04,0.0,0.0,0.0,0.04,0.0,0.0,0.0,0.04
1614383831.2507563,294,1614383831,250099897,base_imu_link,0.06675081242824056,0.0655728923239484,-0.6827426632494713,0.724642657184533,0.0025,0.0,0.0,0.0,0.0025,0.0,0.0,0.0,0.0025,0.04,0.07,-0.04,0.02,0.0,0.0,0.0,0.02,0.0,0.0,0.0,0.02,-3.9549589843749997,-0.13406640625,10.05498046875,0.04,0.0,0.0,0.0,0.04,0.0,0.0,0.0,0.04
1614383831.2704663,295,1614383831,269685029,base_imu_link,0.07151901766450672,0.07181749517713316,-0.6826188512847956,0.7237118082285326,0.0025,0.0,0.0,0.0,0.0025,0.0,0.0,0.0,0.0025,0.01,-0.09,-0.01,0.02,0.0,0.0,0.0,0.02,0.0,0.0,0.0,0.02,-0.22025195312499998,0.445483515625,9.20768078125,0.04,0.0,0.0,0.0,0.04,0.0,0.0,0.0,0.04
1614383831.290575,296,1614383831,289773941,base_imu_link,0.06814281628298005,0.0653321691240279,-0.6831480559038788,0.7241526068318226,0.0025,0.0,0.0,0.0,0.0025,0.0,0.0,0.0,0.0025,0.03,0.01,-0.03,0.02,0.0,0.0,0.0,0.02,0.0,0.0,0.0,0.02,-4.888827265624999,0.023748906249999997,9.729390624999999,0.04,0.0,0.0,0.0,0.04,0.0,0.0,0.0,0.04
1614383831.3113174,297,1614383831,310581922,base_imu_link,0.07448000725246877,0.07236288304255424,-0.6828949082007024,0.7230981164620718,0.0025,0.0,0.0,0.0,0.0025,0.0,0.0,0.0,0.0025,0.0,-0.29,0.02,0.02,0.0,0.0,0.0,0.02,0.0,0.0,0.0,0.02,-0.05286046874999999,0.17696765625,9.648184687499999,0.04,0.0,0.0,0.0,0.04,0.0,0.0,0.0,0.04
1614383831.3307617,298,1614383831,330024957,base_imu_link,0.0688009187678719,0.06458909820145031,-0.6834684464793721,0.7238546571220593,0.0025,0.0,0.0,0.0,0.0025,0.0,0.0,0.0,0.0025,0.07,-0.01,0.04,0.02,0.0,0.0,0.0,0.02,0.0,0.0,0.0,0.02,-1.465154296875,-0.32099328125,8.79552234375,0.04,0.0,0.0,0.0,0.04,0.0,0.0,0.0,0.04
1614383831.351548,299,1614383831,350234985,base_imu_link,0.06876504196689517,0.06640770435813788,-0.6841803939027477,0.7230204522724474,0.0025,0.0,0.0,0.0,0.0025,0.0,0.0,0.0,0.0025,0.05,0.19,0.01,0.02,0.0,0.0,0.0,0.02,0.0,0.0,0.0,0.02,-2.8824277343749998,-0.335166015625,9.940066406249999,0.04,0.0,0.0,0.0,0.04,0.0,0.0,0.0,0.04
1614383831.370943,300,1614383831,370074987,base_imu_link,0.06804190060455657,0.06936243080369159,-0.6842750727977263,0.7227217844390669,0.0025,0.0,0.0,0.0,0.0025,0.0,0.0,0.0,0.0025,-0.06,-0.3,0.03,0.02,0.0,0.0,0.0,0.02,0.0,0.0,0.0,0.02,-2.542282109375,0.14862218749999997,8.78632921875,0.04,0.0,0.0,0.0,0.04,0.0,0.0,0.0,0.04
1614383831.391058,301,1614383831,390321016,base_imu_link,0.07089391282664304,0.072402494227977,-0.6838685307171836,0.7225342653801387,0.0025,0.0,0.0,0.0,0.0025,0.0,0.0,0.0,0.0025,-0.04,0.02,-0.01,0.02,0.0,0.0,0.0,0.02,0.0,0.0,0.0,0.02,0.181947265625,0.49336437499999997,10.1170340625,0.04,0.0,0.0,0.0,0.04,0.0,0.0,0.0,0.04
1614383831.4104996,302,1614383831,409845113,base_imu_link,0.06581580638871319,0.06357256901008915,-0.6849189705517097,0.7228504768465241,0.0025,0.0,0.0,0.0,0.0025,0.0,0.0,0.0,0.0025,0.02,0.05,-0.04,0.02,0.0,0.0,0.0,0.02,0.0,0.0,0.0,0.02,-1.6949824218749998,0.01915234375,9.308039062499999,0.04,0.0,0.0,0.0,0.04,0.0,0.0,0.0,0.04
1614383831.4306924,303,1614383831,429997920,base_imu_link,0.06599731469016984,0.06339545775554399,-0.6855605907511941,0.7222409894201004,0.0025,0.0,0.0,0.0,0.0025,0.0,0.0,0.0,0.0025,0.06,-0.03,-0.05,0.02,0.0,0.0,0.0,0.02,0.0,0.0,0.0,0.02,-4.304680781249999,0.22025195312499998,9.853880859375,0.04,0.0,0.0,0.0,0.04,0.0,0.0,0.0,0.04
1614383831.4513764,304,1614383831,450552940,base_imu_link,0.07193130185949871,0.0693792122806879,-0.685167739786268,0.7214967644226036,0.0025,0.0,0.0,0.0,0.0025,0.0,0.0,0.0,0.0025,-0.03,-0.21,-0.03,0.02,0.0,0.0,0.0,0.02,0.0,0.0,0.0,0.02,-0.45965625,-0.5125167187499999,9.25058203125,0.04,0.0,0.0,0.0,0.04,0.0,0.0,0.0,0.04
1614383831.4711025,305,1614383831,470169067,base_imu_link,0.06661279978247288,0.06747885968284209,-0.6863806437126294,0.7210346387918405,0.0025,0.0,0.0,0.0,0.0025,0.0,0.0,0.0,0.0025,0.03,0.11,-0.06,0.02,0.0,0.0,0.0,0.02,0.0,0.0,0.0,0.02,-2.5135535937499998,0.311417109375,9.863457031249999,0.04,0.0,0.0,0.0,0.04,0.0,0.0,0.0,0.04
1614383831.4907558,306,1614383831,490053892,base_imu_link,0.06924736114853,0.06832408946941647,-0.6871233163309121,0.719998729114538,0.0025,0.0,0.0,0.0,0.0025,0.0,0.0,0.0,0.0025,0.01,-0.09,-0.06,0.02,0.0,0.0,0.0,0.02,0.0,0.0,0.0,0.02,-1.78116796875,0.28728515624999995,9.897165156249999,0.04,0.0,0.0,0.0,0.04,0.0,0.0,0.0,0.04
1614383831.5113492,307,1614383831,510435104,base_imu_link,0.06779250513591471,0.0663482066400619,-0.6876744066277969,0.7197958059006403,0.0025,0.0,0.0,0.0,0.0025,0.0,0.0,0.0,0.0025,-0.07,-0.2,-0.05,0.02,0.0,0.0,0.0,0.02,0.0,0.0,0.0,0.02,-1.99184375,0.49336437499999997,8.810078124999999,0.04,0.0,0.0,0.0,0.04,0.0,0.0,0.0,0.04
1614383831.5316668,308,1614383831,530857086,base_imu_link,0.07101989975609456,0.06710340748250852,-0.6881785197279372,0.7189322857737964,0.0025,0.0,0.0,0.0,0.0025,0.0,0.0,0.0,0.0025,-0.01,0.11,-0.05,0.02,0.0,0.0,0.0,0.02,0.0,0.0,0.0,0.02,-1.04878234375,-0.564994140625,10.600822265624998,0.04,0.0,0.0,0.0,0.04,0.0,0.0,0.0,0.04
1614383831.5523558,309,1614383831,550553083,base_imu_link,0.06466977451982187,0.06488126909003321,-0.6889149379411271,0.7190302145712619,0.0025,0.0,0.0,0.0,0.0025,0.0,0.0,0.0,0.0025,-0.01,-0.2,-0.02,0.02,0.0,0.0,0.0,0.02,0.0,0.0,0.0,0.02,-2.805818359375,0.416755,8.5756534375,0.04,0.0,0.0,0.0,0.04,0.0,0.0,0.0,0.04
1614383831.5716279,310,1614383831,570746898,base_imu_link,0.0695555278246446,0.06837867887784838,-0.6891081992316475,0.7180642551858928,0.0025,0.0,0.0,0.0,0.0025,0.0,0.0,0.0,0.0025,-0.05,0.04,-0.06,0.02,0.0,0.0,0.0,0.02,0.0,0.0,0.0,0.02,-0.49336437499999997,-0.340145625,10.256080078124999,0.04,0.0,0.0,0.0,0.04,0.0,0.0,0.0,0.04
1614383831.5907817,311,1614383831,590058088,base_imu_link,0.06234987353118897,0.06349060730200518,-0.6902740362561973,0.718055144766504,0.0025,0.0,0.0,0.0,0.0025,0.0,0.0,0.0,0.0025,0.02,-0.18,-0.03,0.02,0.0,0.0,0.0,0.02,0.0,0.0,0.0,0.02,-1.465154296875,0.10533789062499999,8.723892578125,0.04,0.0,0.0,0.0,0.04,0.0,0.0,0.0,0.04
1614383831.6118677,312,1614383831,611011028,base_imu_link,0.06350612851322919,0.06430637475251204,-0.6909509371899452,0.7172297150870054,0.0025,0.0,0.0,0.0,0.0025,0.0,0.0,0.0,0.0025,-0.0,0.15,-0.09,0.02,0.0,0.0,0.0,0.02,0.0,0.0,0.0,0.02,-2.365314453125,-0.20607921875,10.777789921875,0.04,0.0,0.0,0.0,0.04,0.0,0.0,0.0,0.04
1614383831.6313787,313,1614383831,630490064,base_imu_link,0.06225398361516987,0.0643055958457043,-0.6913812996826114,0.7169247731220858,0.0025,0.0,0.0,0.0,0.0025,0.0,0.0,0.0,0.0025,0.0,-0.27,-0.04,0.02,0.0,0.0,0.0,0.02,0.0,0.0,0.0,0.02,-0.8522792968749999,0.11989367187499998,8.503640625,0.04,0.0,0.0,0.0,0.04,0.0,0.0,0.0,0.04
1614383831.6516147,314,1614383831,650839090,base_imu_link,0.06211645210056155,0.06383415547295315,-0.6918572723517126,0.7165195473031715,0.0025,0.0,0.0,0.0,0.0025,0.0,0.0,0.0,0.0025,-0.0,0.19,-0.08,0.02,0.0,0.0,0.0,0.02,0.0,0.0,0.0,0.02,-3.5577393749999997,-0.17696765625,11.409817265625,0.04,0.0,0.0,0.0,0.04,0.0,0.0,0.0,0.04
1614383831.6716309,315,1614383831,670836925,base_imu_link,0.06327556402826116,0.065614513005297,-0.691948165266462,0.7161694459165097,0.0025,0.0,0.0,0.0,0.0025,0.0,0.0,0.0,0.0025,0.02,-0.26,-0.02,0.02,0.0,0.0,0.0,0.02,0.0,0.0,0.0,0.02,-0.47421203125,0.028728515625,8.9249921875,0.04,0.0,0.0,0.0,0.04,0.0,0.0,0.0,0.04
1614383831.6917107,316,1614383831,690880060,base_imu_link,0.061462036443549396,0.062773567171915,-0.6926930407107155,0.7158618921912718,0.0025,0.0,0.0,0.0,0.0025,0.0,0.0,0.0,0.0025,0.06,0.13,-0.04,0.02,0.0,0.0,0.0,0.02,0.0,0.0,0.0,0.02,-4.529529296874999,-0.27770898437499997,10.777789921875,0.04,0.0,0.0,0.0,0.04,0.0,0.0,0.0,0.04
1614383831.7119396,317,1614383831,711299896,base_imu_link,0.06581634767497518,0.06811330077701702,-0.692403819482318,0.7152662003773728,0.0025,0.0,0.0,0.0,0.0025,0.0,0.0,0.0,0.0025,0.04,-0.17,-0.01,0.02,0.0,0.0,0.0,0.02,0.0,0.0,0.0,0.02,-0.1149140625,-0.076609375,9.0016015625,0.04,0.0,0.0,0.0,0.04,0.0,0.0,0.0,0.04
1614383831.7318084,318,1614383831,730921030,base_imu_link,0.06193258420656755,0.06364852666336723,-0.6932366566589686,0.7152175598594978,0.0025,0.0,0.0,0.0,0.0025,0.0,0.0,0.0,0.0025,0.07,0.06,-0.0,0.02,0.0,0.0,0.0,0.02,0.0,0.0,0.0,0.02,-4.477051874999999,0.1578153125,9.648184687499999,0.04,0.0,0.0,0.0,0.04,0.0,0.0,0.0,0.04
1614383831.7512522,319,1614383831,750636100,base_imu_link,0.06981803515715979,0.07052438081518528,-0.6926768737441193,0.7143882013705866,0.0025,0.0,0.0,0.0,0.0025,0.0,0.0,0.0,0.0025,0.03,-0.16,0.0,0.02,0.0,0.0,0.0,0.02,0.0,0.0,0.0,0.02,0.067033203125,0.14862218749999997,9.480410156249999,0.04,0.0,0.0,0.0,0.04,0.0,0.0,0.0,0.04
1614383831.7715359,320,1614383831,770741939,base_imu_link,0.06408246241815983,0.06338042818517274,-0.6932045856802735,0.7150830453348266,0.0025,0.0,0.0,0.0,0.0025,0.0,0.0,0.0,0.0025,0.03,-0.0,0.01,0.02,0.0,0.0,0.0,0.02,0.0,0.0,0.0,0.02,-3.6293691406249997,0.028728515625,9.226833124999999,0.04,0.0,0.0,0.0,0.04,0.0,0.0,0.0,0.04
1614383831.7914243,321,1614383831,790631055,base_imu_link,0.07050652623841887,0.07046116441782502,-0.6928086534195845,0.7141990085498701,0.0025,0.0,0.0,0.0,0.0025,0.0,0.0,0.0,0.0025,-0.03,-0.05,-0.01,0.02,0.0,0.0,0.0,0.02,0.0,0.0,0.0,0.02,-0.3784503125,0.47421203125,9.834728515624999,0.04,0.0,0.0,0.0,0.04,0.0,0.0,0.0,0.04
1614383831.8117194,322,1614383831,810960054,base_imu_link,0.06503158228138058,0.06197555595623362,-0.6933920684254579,0.7149387129080091,0.0025,0.0,0.0,0.0,0.0025,0.0,0.0,0.0,0.0025,-0.03,-0.21,-0.0,0.02,0.0,0.0,0.0,0.02,0.0,0.0,0.0,0.02,-1.0870870312499998,-0.507537109375,8.73346875,0.04,0.0,0.0,0.0,0.04,0.0,0.0,0.0,0.04
1614383831.8321943,323,1614383831,831413984,base_imu_link,0.06334195011806695,0.06385469280135943,-0.6939027689691065,0.7144293686428987,0.0025,0.0,0.0,0.0,0.0025,0.0,0.0,0.0,0.0025,-0.01,0.19,-0.02,0.02,0.0,0.0,0.0,0.02,0.0,0.0,0.0,0.02,-3.1651163281249994,-0.17237109374999998,11.1466640625,0.04,0.0,0.0,0.0,0.04,0.0,0.0,0.0,0.04
1614383831.851704,324,1614383831,851032972,base_imu_link,0.06400278598093405,0.06527236204493897,-0.6938383238834668,0.7143049365994432,0.0025,0.0,0.0,0.0,0.0025,0.0,0.0,0.0,0.0025,0.02,-0.25,-0.0,0.02,0.0,0.0,0.0,0.02,0.0,0.0,0.0,0.02,-0.9913253124999999,-0.38304687499999995,9.030330078124999,0.04,0.0,0.0,0.0,0.04,0.0,0.0,0.0,0.04
1614383831.8720894,325,1614383831,871233940,base_imu_link,0.0621861106208362,0.06534125530596141,-0.6941363248028211,0.7141695671128299,0.0025,0.0,0.0,0.0,0.0025,0.0,0.0,0.0,0.0025,0.06,0.13,-0.05,0.02,0.0,0.0,0.0,0.02,0.0,0.0,0.0,0.02,-3.5002823437499995,0.7323856249999999,9.6956825,0.04,0.0,0.0,0.0,0.04,0.0,0.0,0.0,0.04
1614383831.891672,326,1614383831,890847921,base_imu_link,0.06932186659762365,0.06821942338560458,-0.6937628949959999,0.713606078036844,0.0025,0.0,0.0,0.0,0.0025,0.0,0.0,0.0,0.0025,-0.02,-0.11,-0.05,0.02,0.0,0.0,0.0,0.02,0.0,0.0,0.0,0.02,-0.612875,0.18654382812499998,9.403800781249998,0.04,0.0,0.0,0.0,0.04,0.0,0.0,0.0,0.04
1614383831.9117155,327,1614383831,910849094,base_imu_link,0.06528022819842999,0.06306087405999934,-0.6942255538484321,0.7140116934287474,0.0025,0.0,0.0,0.0,0.0025,0.0,0.0,0.0,0.0025,0.01,-0.11,-0.06,0.02,0.0,0.0,0.0,0.02,0.0,0.0,0.0,0.02,-2.77708984375,0.04290125,9.0782109375,0.04,0.0,0.0,0.0,0.04,0.0,0.0,0.0,0.04
1614383831.9324477,328,1614383831,931760072,base_imu_link,0.06924589743782611,0.06756132391760064,-0.6948731246595169,0.7125951261582206,0.0025,0.0,0.0,0.0,0.0025,0.0,0.0,0.0,0.0025,-0.02,0.04,-0.08,0.02,0.0,0.0,0.0,0.02,0.0,0.0,0.0,0.02,-1.01047765625,-0.56997375,10.653299687499999,0.04,0.0,0.0,0.0,0.04,0.0,0.0,0.0,0.04
1614383831.9518504,329,1614383831,951186895,base_imu_link,0.06327946011724993,0.06512740148595716,-0.6960102156556404,0.7122667416115577,0.0025,0.0,0.0,0.0,0.0025,0.0,0.0,0.0,0.0025,0.02,-0.18,-0.06,0.02,0.0,0.0,0.0,0.02,0.0,0.0,0.0,0.02,-1.9680948437499999,-0.05745703125,8.953720703124999,0.04,0.0,0.0,0.0,0.04,0.0,0.0,0.0,0.04
1614383831.9724934,330,1614383831,971481084,base_imu_link,0.06520418615393779,0.06713518068181304,-0.6969357230056268,0.7110006185802143,0.0025,0.0,0.0,0.0,0.0025,0.0,0.0,0.0,0.0025,0.03,0.1,-0.09,0.02,0.0,0.0,0.0,0.02,0.0,0.0,0.0,0.02,-2.4227714843749997,-0.033708125,10.7253125,0.04,0.0,0.0,0.0,0.04,0.0,0.0,0.0,0.04
1614383831.9919622,331,1614383831,991189956,base_imu_link,0.0652662324144696,0.06707436131105234,-0.6969415790016188,0.7109949257342595,0.0025,0.0,0.0,0.0,0.0025,0.0,0.0,0.0,0.0025,0.03,-0.19,-0.05,0.02,0.0,0.0,0.0,0.02,0.0,0.0,0.0,0.02,-1.024650390625,0.311417109375,8.680608281249999,0.04,0.0,0.0,0.0,0.04,0.0,0.0,0.0,0.04
1614383832.0126398,332,1614383832,11847019,base_imu_link,0.06562985317524016,0.06537852337413237,-0.6975305818403784,0.7105416655278124,0.0025,0.0,0.0,0.0,0.0025,0.0,0.0,0.0,0.0025,0.03,0.12,-0.07,0.02,0.0,0.0,0.0,0.02,0.0,0.0,0.0,0.02,-3.9836875,-0.40219921875,10.744464843749999,0.04,0.0,0.0,0.0,0.04,0.0,0.0,0.0,0.04
1614383832.0324533,333,1614383832,31600952,base_imu_link,0.06796026151682909,0.06966463608201676,-0.6974957619778257,0.7099492259007658,0.0025,0.0,0.0,0.0,0.0025,0.0,0.0,0.0,0.0025,0.03,-0.23,-0.04,0.02,0.0,0.0,0.0,0.02,0.0,0.0,0.0,0.02,-0.65577625,0.40219921875,9.40839734375,0.04,0.0,0.0,0.0,0.04,0.0,0.0,0.0,0.04
1614383832.052279,334,1614383832,51328897,base_imu_link,0.06573796661894235,0.06393132851917924,-0.6980311399127993,0.7101716924030536,0.0025,0.0,0.0,0.0,0.0025,0.0,0.0,0.0,0.0025,0.05,-0.03,-0.04,0.02,0.0,0.0,0.0,0.02,0.0,0.0,0.0,0.02,-2.365314453125,-0.08120593749999999,9.016157343749999,0.04,0.0,0.0,0.0,0.04,0.0,0.0,0.0,0.04
1614383832.0720763,335,1614383832,71280002,base_imu_link,0.06842778649275988,0.06774182069699725,-0.6985412705198037,0.7090618993747554,0.0025,0.0,0.0,0.0,0.0025,0.0,0.0,0.0,0.0025,-0.01,0.11,-0.07,0.02,0.0,0.0,0.0,0.02,0.0,0.0,0.0,0.02,-1.537167109375,0.22025195312499998,10.09328515625,0.04,0.0,0.0,0.0,0.04,0.0,0.0,0.0,0.04
1614383832.092042,336,1614383832,91247081,base_imu_link,0.06587141294104706,0.0639186383336746,-0.698830868433111,0.7093735137117418,0.0025,0.0,0.0,0.0,0.0025,0.0,0.0,0.0,0.0025,-0.0,-0.28,-0.02,0.02,0.0,0.0,0.0,0.02,0.0,0.0,0.0,0.02,-2.7196328124999996,0.201099609375,8.613958125,0.04,0.0,0.0,0.0,0.04,0.0,0.0,0.0,0.04
1614383832.1124535,337,1614383832,111665964,base_imu_link,0.0702485714882278,0.06789671470757627,-0.6989578932277664,0.708458211774261,0.0025,0.0,0.0,0.0,0.0025,0.0,0.0,0.0,0.0025,-0.03,0.07,-0.06,0.02,0.0,0.0,0.0,0.02,0.0,0.0,0.0,0.02,-0.5125167187499999,0.08618554687499999,10.227351562499999,0.04,0.0,0.0,0.0,0.04,0.0,0.0,0.0,0.04
1614383832.1320806,338,1614383832,131376028,base_imu_link,0.06515768263212574,0.06193325148664921,-0.6998036496642618,0.7086561935599529,0.0025,0.0,0.0,0.0,0.0025,0.0,0.0,0.0,0.0025,0.05,-0.12,-0.03,0.02,0.0,0.0,0.0,0.02,0.0,0.0,0.0,0.02,-1.7574190625,-0.162794921875,9.03990625,0.04,0.0,0.0,0.0,0.04,0.0,0.0,0.0,0.04
1614383832.1525338,339,1614383832,151750087,base_imu_link,0.06546756999884609,0.06406933773422561,-0.6997981921259665,0.708443087014033,0.0025,0.0,0.0,0.0,0.0025,0.0,0.0,0.0,0.0025,-0.02,0.09,-0.06,0.02,0.0,0.0,0.0,0.02,0.0,0.0,0.0,0.02,-3.2991827343749995,0.201099609375,10.035828124999998,0.04,0.0,0.0,0.0,0.04,0.0,0.0,0.0,0.04
1614383832.172543,340,1614383832,171677112,base_imu_link,0.06890848926523874,0.0666535863626064,-0.6997475874875726,0.7079281272399812,0.0025,0.0,0.0,0.0,0.0025,0.0,0.0,0.0,0.0025,-0.0,-0.23,-0.03,0.02,0.0,0.0,0.0,0.02,0.0,0.0,0.0,0.02,-0.201099609375,-0.335166015625,9.202701171874999,0.04,0.0,0.0,0.0,0.04,0.0,0.0,0.0,0.04
1614383832.192705,341,1614383832,191888093,base_imu_link,0.0637168612245507,0.0634772319488084,-0.7001560584716117,0.7083024046304695,0.0025,0.0,0.0,0.0,0.0025,0.0,0.0,0.0,0.0025,0.03,0.09,-0.02,0.02,0.0,0.0,0.0,0.02,0.0,0.0,0.0,0.02,-4.094004999999999,-0.17696765625,9.624052734374999,0.04,0.0,0.0,0.0,0.04,0.0,0.0,0.0,0.04
1614383832.212171,342,1614383832,211507081,base_imu_link,0.069793097034064,0.07066359572456447,-0.6998489280927368,0.7073521454644189,0.0025,0.0,0.0,0.0,0.0025,0.0,0.0,0.0,0.0025,0.03,-0.13,-0.03,0.02,0.0,0.0,0.0,0.02,0.0,0.0,0.0,0.02,-0.13406640625,0.023748906249999997,9.82974890625,0.04,0.0,0.0,0.0,0.04,0.0,0.0,0.0,0.04
1614383832.2325642,343,1614383832,231687068,base_imu_link,0.06305782150120924,0.06339531343014793,-0.7003466298991936,0.7081803042809487,0.0025,0.0,0.0,0.0,0.0025,0.0,0.0,0.0,0.0025,0.03,-0.09,-0.06,0.02,0.0,0.0,0.0,0.02,0.0,0.0,0.0,0.02,-2.0447042187499997,-0.41177539062499996,8.7380653125,0.04,0.0,0.0,0.0,0.04,0.0,0.0,0.0,0.04
1614383832.2525144,344,1614383832,251729965,base_imu_link,0.06383377980260452,0.06690761049243156,-0.7006365804652056,0.707500531680598,0.0025,0.0,0.0,0.0,0.0025,0.0,0.0,0.0,0.0025,0.01,0.07,-0.1,0.02,0.0,0.0,0.0,0.02,0.0,0.0,0.0,0.02,-1.12998828125,0.15321875,10.313537109375,0.04,0.0,0.0,0.0,0.04,0.0,0.0,0.0,0.04
1614383832.2727032,345,1614383832,271905899,base_imu_link,0.06087880465340875,0.06298505928184568,-0.7014230808067298,0.707341724460554,0.0025,0.0,0.0,0.0,0.0025,0.0,0.0,0.0,0.0025,-0.01,-0.16,-0.1,0.02,0.0,0.0,0.0,0.02,0.0,0.0,0.0,0.02,-1.66165734375,0.201099609375,8.920395625,0.04,0.0,0.0,0.0,0.04,0.0,0.0,0.0,0.04
1614383832.292509,346,1614383832,291784048,base_imu_link,0.0626992099005099,0.06313846804523061,-0.7018391403511712,0.7067560852245152,0.0025,0.0,0.0,0.0,0.0025,0.0,0.0,0.0,0.0025,0.03,0.07,-0.09,0.02,0.0,0.0,0.0,0.02,0.0,0.0,0.0,0.02,-3.4811299999999994,0.32099328125,10.610398437499999,0.04,0.0,0.0,0.0,0.04,0.0,0.0,0.0,0.04
1614383832.3128593,347,1614383832,312040090,base_imu_link,0.0664615806413648,0.06564787238459242,-0.7018572588587975,0.7061654220770387,0.0025,0.0,0.0,0.0,0.0025,0.0,0.0,0.0,0.0025,-0.02,-0.17,-0.06,0.02,0.0,0.0,0.0,0.02,0.0,0.0,0.0,0.02,-0.416755,-0.17696765625,9.269734374999999,0.04,0.0,0.0,0.0,0.04,0.0,0.0,0.0,0.04
1614383832.332487,348,1614383832,331693887,base_imu_link,0.0620415148517782,0.061830815140955675,-0.7028106748836337,0.7059638489352787,0.0025,0.0,0.0,0.0,0.0025,0.0,0.0,0.0,0.0025,0.05,-0.0,-0.06,0.02,0.0,0.0,0.0,0.02,0.0,0.0,0.0,0.02,-3.21759375,0.22025195312499998,9.1548203125,0.04,0.0,0.0,0.0,0.04,0.0,0.0,0.0,0.04
1614383832.353037,349,1614383832,352232933,base_imu_link,0.06818580039042232,0.06699473926167414,-0.7024639398538536,0.7052707386113363,0.0025,0.0,0.0,0.0,0.0025,0.0,0.0,0.0,0.0025,-0.02,-0.04,-0.09,0.02,0.0,0.0,0.0,0.02,0.0,0.0,0.0,0.02,-1.326491328125,-0.45008007812499995,10.59584265625,0.04,0.0,0.0,0.0,0.04,0.0,0.0,0.0,0.04
1614383832.3729393,350,1614383832,372183084,base_imu_link,0.06353703908657408,0.06537097303585794,-0.7027976227033769,0.7055247565259056,0.0025,0.0,0.0,0.0,0.0025,0.0,0.0,0.0,0.0025,0.0,-0.18,-0.05,0.02,0.0,0.0,0.0,0.02,0.0,0.0,0.0,0.02,-1.3598164062499998,0.416755,8.37417078125,0.04,0.0,0.0,0.0,0.04,0.0,0.0,0.0,0.04
1614383832.3933115,351,1614383832,392618894,base_imu_link,0.06477283956261767,0.06475311545562136,-0.7029160614964097,0.7053513477580958,0.0025,0.0,0.0,0.0,0.0025,0.0,0.0,0.0,0.0025,-0.01,0.08,-0.1,0.02,0.0,0.0,0.0,0.02,0.0,0.0,0.0,0.02,-2.925328984375,-0.4550596875,10.653299687499999,0.04,0.0,0.0,0.0,0.04,0.0,0.0,0.0,0.04
1614383832.4129777,352,1614383832,412179946,base_imu_link,0.06459545631232266,0.06750618609559204,-0.7027798621924666,0.7052452106603545,0.0025,0.0,0.0,0.0,0.0025,0.0,0.0,0.0,0.0025,-0.01,-0.21,-0.04,0.02,0.0,0.0,0.0,0.02,0.0,0.0,0.0,0.02,-0.6082784375,0.076609375,8.431627812499999,0.04,0.0,0.0,0.0,0.04,0.0,0.0,0.0,0.04
1614383832.4335186,353,1614383832,432770967,base_imu_link,0.06300112324172612,0.06529202442916861,-0.7029879182088776,0.7053905279124254,0.0025,0.0,0.0,0.0,0.0025,0.0,0.0,0.0,0.0025,0.02,0.06,-0.06,0.02,0.0,0.0,0.0,0.02,0.0,0.0,0.0,0.02,-4.280548828124999,-0.27770898437499997,10.825670781249999,0.04,0.0,0.0,0.0,0.04,0.0,0.0,0.0,0.04
1614383832.4530282,354,1614383832,452212095,base_imu_link,0.06694488901711558,0.06970331620331911,-0.7027495258764713,0.704842488379596,0.0025,0.0,0.0,0.0,0.0025,0.0,0.0,0.0,0.0025,0.05,-0.18,-0.01,0.02,0.0,0.0,0.0,0.02,0.0,0.0,0.0,0.02,-0.392623046875,-0.004979609375,9.834728515624999,0.04,0.0,0.0,0.0,0.04,0.0,0.0,0.0,0.04
1614383832.4730563,355,1614383832,472253084,base_imu_link,0.06294149652115782,0.06412440640425301,-0.7030950355997722,0.7053962003256996,0.0025,0.0,0.0,0.0,0.0025,0.0,0.0,0.0,0.0025,0.11,0.06,-0.0,0.02,0.0,0.0,0.0,0.02,0.0,0.0,0.0,0.02,-3.140984375,0.047880859374999994,9.059058593749999,0.04,0.0,0.0,0.0,0.04,0.0,0.0,0.0,0.04
1614383832.4933257,356,1614383832,492588996,base_imu_link,0.06912556716693609,0.0697363788839109,-0.7024422870645601,0.7049349805248135,0.0025,0.0,0.0,0.0,0.0025,0.0,0.0,0.0,0.0025,0.02,0.07,-0.04,0.02,0.0,0.0,0.0,0.02,0.0,0.0,0.0,0.02,-0.8043984375,0.45008007812499995,9.638225468749999,0.04,0.0,0.0,0.0,0.04,0.0,0.0,0.0,0.04
1614383832.5128753,357,1614383832,512033939,base_imu_link,0.065429586219716,0.06311785773202803,-0.7028202850169096,0.705534373543335,0.0025,0.0,0.0,0.0,0.0025,0.0,0.0,0.0,0.0025,-0.01,-0.21,-0.04,0.02,0.0,0.0,0.0,0.02,0.0,0.0,0.0,0.02,-2.31283703125,0.16739148437499998,8.690567499999998,0.04,0.0,0.0,0.0,0.04,0.0,0.0,0.0,0.04
1614383832.5334592,358,1614383832,532574892,base_imu_link,0.06862340818102187,0.06606814173929469,-0.7026124731890232,0.7051677396307503,0.0025,0.0,0.0,0.0,0.0025,0.0,0.0,0.0,0.0025,-0.03,0.09,-0.06,0.02,0.0,0.0,0.0,0.02,0.0,0.0,0.0,0.02,-1.565895625,0.05286046874999999,10.576690312499998,0.04,0.0,0.0,0.0,0.04,0.0,0.0,0.0,0.04
1614383832.553378,359,1614383832,552308082,base_imu_link,0.06619335501729327,0.06370511475523474,-0.7030729509163387,0.7051585096950674,0.0025,0.0,0.0,0.0,0.0025,0.0,0.0,0.0,0.0025,0.01,-0.17,-0.04,0.02,0.0,0.0,0.0,0.02,0.0,0.0,0.0,0.02,-1.652081171875,0.14862218749999997,8.87213171875,0.04,0.0,0.0,0.0,0.04,0.0,0.0,0.0,0.04
1614383832.5733867,360,1614383832,572654962,base_imu_link,0.06761052505533989,0.064500451575193,-0.7030620965540891,0.7049625500956105,0.0025,0.0,0.0,0.0,0.0025,0.0,0.0,0.0,0.0025,0.0,0.13,-0.06,0.02,0.0,0.0,0.0,0.02,0.0,0.0,0.0,0.02,-3.0498192187499997,-0.17237109374999998,10.313537109375,0.04,0.0,0.0,0.0,0.04,0.0,0.0,0.0,0.04
1614383832.5929341,361,1614383832,592300891,base_imu_link,0.06940403654182382,0.06786408934205408,-0.7029296792717664,0.7046044358988713,0.0025,0.0,0.0,0.0,0.0025,0.0,0.0,0.0,0.0025,-0.0,-0.12,-0.03,0.02,0.0,0.0,0.0,0.02,0.0,0.0,0.0,0.02,-2.00639953125,0.009576171875,9.21227734375,0.04,0.0,0.0,0.0,0.04,0.0,0.0,0.0,0.04
1614383832.6134672,362,1614383832,612648963,base_imu_link,0.07082092464296628,0.06890386665117858,-0.7028900191058394,0.7044020690164281,0.0025,0.0,0.0,0.0,0.0025,0.0,0.0,0.0,0.0025,0.04,0.05,-0.04,0.02,0.0,0.0,0.0,0.02,0.0,0.0,0.0,0.02,-2.8728515624999997,-0.3784503125,9.63362890625,0.04,0.0,0.0,0.0,0.04,0.0,0.0,0.0,0.04
1614383832.6336148,363,1614383832,632745027,base_imu_link,0.07262119952603233,0.07348521978293114,-0.7026705396634009,0.7039745709484113,0.0025,0.0,0.0,0.0,0.0025,0.0,0.0,0.0,0.0025,0.02,-0.04,-0.04,0.02,0.0,0.0,0.0,0.02,0.0,0.0,0.0,0.02,-2.74338171875,-0.16739148437499998,9.241005859374999,0.04,0.0,0.0,0.0,0.04,0.0,0.0,0.0,0.04
1614383832.6535542,364,1614383832,652709007,base_imu_link,0.07518129462368793,0.07681616803653596,-0.7027400126680001,0.7032805442085457,0.0025,0.0,0.0,0.0,0.0025,0.0,0.0,0.0,0.0025,0.04,-0.02,-0.04,0.02,0.0,0.0,0.0,0.02,0.0,0.0,0.0,0.02,-4.089025390624999,0.229828125,9.355919921875,0.04,0.0,0.0,0.0,0.04,0.0,0.0,0.0,0.04
1614383832.6733334,365,1614383832,672725915,base_imu_link,0.08238701025422096,0.0824877265120962,-0.7018557654213138,0.7027137682307769,0.0025,0.0,0.0,0.0,0.0025,0.0,0.0,0.0,0.0025,-0.0,-0.07,-0.02,0.02,0.0,0.0,0.0,0.02,0.0,0.0,0.0,0.02,-3.0593953906249998,-0.22523156249999998,9.54246375,0.04,0.0,0.0,0.0,0.04,0.0,0.0,0.0,0.04
