Time,header.seq,header.stamp.secs,header.stamp.nsecs,header.frame_id,orientation.x,orientation.y,orientation.z,orientation.w,orientation_covariance_0,orientation_covariance_1,orientation_covariance_2,orientation_covariance_3,orientation_covariance_4,orientation_covariance_5,orientation_covariance_6,orientation_covariance_7,orientation_covariance_8,angular_velocity.x,angular_velocity.y,angular_velocity.z,angular_velocity_covariance_0,angular_velocity_covariance_1,angular_velocity_covariance_2,angular_velocity_covariance_3,angular_velocity_covariance_4,angular_velocity_covariance_5,angular_velocity_covariance_6,angular_velocity_covariance_7,angular_velocity_covariance_8,linear_acceleration.x,linear_acceleration.y,linear_acceleration.z,linear_acceleration_covariance_0,linear_acceleration_covariance_1,linear_acceleration_covariance_2,linear_acceleration_covariance_3,linear_acceleration_covariance_4,linear_acceleration_covariance_5,linear_acceleration_covariance_6,linear_acceleration_covariance_7,linear_acceleration_covariance_8
1614382876.760641,474,1614382876,759690046,base_imu_link,0.07160118432395671,0.05831508066022861,-0.6757639499008973,0.7313109501336182,0.0025,0.0,0.0,0.0,0.0025,0.0,0.0,0.0,0.0025,0.01,-0.05,-0.01,0.02,0.0,0.0,0.0,0.02,0.0,0.0,0.0,0.02,-1.829048828125,0.253960078125,9.662357421874999,0.04,0.0,0.0,0.0,0.04,0.0,0.0,0.0,0.04
1614382876.780485,475,1614382876,779422044,base_imu_link,0.07163170821245878,0.05827758237579318,-0.6761467707692129,0.7309570207265017,0.0025,0.0,0.0,0.0,0.0025,0.0,0.0,0.0,0.0025,0.01,-0.05,-0.01,0.02,0.0,0.0,0.0,0.02,0.0,0.0,0.0,0.02,-1.829048828125,0.24898046875,9.6573778125,0.04,0.0,0.0,0.0,0.04,0.0,0.0,0.0,0.04
1614382876.8004715,476,1614382876,799587011,base_imu_link,0.07164187847831942,0.058265079396666974,-0.6762743365372833,0.7308389997202223,0.0025,0.0,0.0,0.0,0.0025,0.0,0.0,0.0,0.0025,0.01,-0.05,-0.01,0.02,0.0,0.0,0.0,0.02,0.0,0.0,0.0,0.02,-1.8194726562499999,0.24898046875,9.66733703125,0.04,0.0,0.0,0.0,0.04,0.0,0.0,0.0,0.04
1614382876.8203142,477,1614382876,819426059,base_imu_link,0.07159825119093695,0.05818241645648513,-0.6764702148524563,0.7306685604698996,0.0025,0.0,0.0,0.0,0.0025,0.0,0.0,0.0,0.0025,0.01,-0.05,-0.01,0.02,0.0,0.0,0.0,0.02,0.0,0.0,0.0,0.02,-1.824452265625,0.26353624999999997,9.662357421874999,0.04,0.0,0.0,0.0,0.04,0.0,0.0,0.0,0.04
1614382876.8410974,478,1614382876,840133905,base_imu_link,0.07165694128393778,0.058129636541433466,-0.6764115247594553,0.7307213403849513,0.0025,0.0,0.0,0.0,0.0025,0.0,0.0,0.0,0.0025,0.01,-0.05,-0.01,0.02,0.0,0.0,0.0,0.02,0.0,0.0,0.0,0.02,-1.829048828125,0.253960078125,9.66733703125,0.04,0.0,0.0,0.0,0.04,0.0,0.0,0.0,0.04
1614382876.8605907,479,1614382876,859611034,base_imu_link,0.07166708572799499,0.05811712916055885,-0.6765390493895141,0.7306032731739733,0.0025,0.0,0.0,0.0,0.0025,0.0,0.0,0.0,0.0025,0.01,-0.05,-0.01,0.02,0.0,0.0,0.0,0.02,0.0,0.0,0.0,0.02,-1.829048828125,0.24438390624999998,9.6573778125,0.04,0.0,0.0,0.0,0.04,0.0,0.0,0.0,0.04
1614382876.8808465,480,1614382876,879925012,base_imu_link,0.07165694128393778,0.058129636541433466,-0.6764115247594553,0.7307213403849513,0.0025,0.0,0.0,0.0,0.0025,0.0,0.0,0.0,0.0025,0.01,-0.05,-0.01,0.02,0.0,0.0,0.0,0.02,0.0,0.0,0.0,0.02,-1.824452265625,0.24898046875,9.6573778125,0.04,0.0,0.0,0.0,0.04,0.0,0.0,0.0,0.04
1614382876.9008691,481,1614382876,899857044,base_imu_link,0.07165694128393778,0.058129636541433466,-0.6764115247594553,0.7307213403849513,0.0025,0.0,0.0,0.0,0.0025,0.0,0.0,0.0,0.0025,0.01,-0.05,-0.01,0.02,0.0,0.0,0.0,0.02,0.0,0.0,0.0,0.02,-1.829048828125,0.24898046875,9.66733703125,0.04,0.0,0.0,0.0,0.04,0.0,0.0,0.0,0.04
1614382876.9210508,482,1614382876,920145988,base_imu_link,0.07165186824334163,0.058135889567870844,-0.6763477547174306,0.7307803656435231,0.0025,0.0,0.0,0.0,0.0025,0.0,0.0,0.0,0.0025,0.01,-0.05,-0.01,0.02,0.0,0.0,0.0,0.02,0.0,0.0,0.0,0.02,-1.829048828125,0.24438390624999998,9.6573778125,0.04,0.0,0.0,0.0,0.04,0.0,0.0,0.0,0.04
1614382876.9405823,483,1614382876,939825057,base_imu_link,0.07159825119093695,0.05818241645648513,-0.6764702148524563,0.7306685604698996,0.0025,0.0,0.0,0.0,0.0025,0.0,0.0,0.0,0.0025,0.01,-0.05,-0.01,0.02,0.0,0.0,0.0,0.02,0.0,0.0,0.0,0.02,-1.829048828125,0.24438390624999998,9.6573778125,0.04,0.0,0.0,0.0,0.04,0.0,0.0,0.0,0.04
1614382876.9607446,484,1614382876,960084915,base_imu_link,0.07165712978513285,0.05824632160024204,-0.6764656465622483,0.7306619264694976,0.0025,0.0,0.0,0.0,0.0025,0.0,0.0,0.0,0.0025,0.01,-0.05,-0.01,0.02,0.0,0.0,0.0,0.02,0.0,0.0,0.0,0.02,-1.8194726562499999,0.26353624999999997,9.6573778125,0.04,0.0,0.0,0.0,0.04,0.0,0.0,0.0,0.04
1614382876.9808228,485,1614382876,979989051,base_imu_link,0.07167215713137881,0.05811087480621682,-0.6766028039765772,0.7305442312224664,0.0025,0.0,0.0,0.0,0.0025,0.0,0.0,0.0,0.0025,0.01,-0.05,-0.01,0.02,0.0,0.0,0.0,0.02,0.0,0.0,0.0,0.02,-1.824452265625,0.253960078125,9.662357421874999,0.04,0.0,0.0,0.0,0.04,0.0,0.0,0.0,0.04
1614382877.0009995,486,1614382877,29087,base_imu_link,0.07163157062474164,0.05816089724584304,-0.6760926230473615,0.731016411021209,0.0025,0.0,0.0,0.0,0.0025,0.0,0.0,0.0,0.0025,0.01,-0.05,-0.01,0.02,0.0,0.0,0.0,0.02,0.0,0.0,0.0,0.02,-1.829048828125,0.253960078125,9.67193359375,0.04,0.0,0.0,0.0,0.04,0.0,0.0,0.0,0.04
1614382877.020814,487,1614382877,19962072,base_imu_link,0.07172070847752895,0.0580706082791397,-0.676416594951618,0.7307150843547922,0.0025,0.0,0.0,0.0,0.0025,0.0,0.0,0.0,0.0025,0.01,-0.05,-0.01,0.02,0.0,0.0,0.0,0.02,0.0,0.0,0.0,0.02,-1.829048828125,0.258556640625,9.662357421874999,0.04,0.0,0.0,0.0,0.04,0.0,0.0,0.0,0.04
1614382877.040916,488,1614382877,40004968,base_imu_link,0.07171564058787765,0.05807686687053924,-0.6763528254555157,0.7307741100558455,0.0025,0.0,0.0,0.0,0.0025,0.0,0.0,0.0,0.0025,0.01,-0.05,-0.01,0.02,0.0,0.0,0.0,0.02,0.0,0.0,0.0,0.02,-1.824452265625,0.258556640625,9.66733703125,0.04,0.0,0.0,0.0,0.04,0.0,0.0,0.0,0.04
1614382877.0611978,489,1614382877,60185909,base_imu_link,0.07171564058787765,0.05807686687053924,-0.6763528254555157,0.7307741100558455,0.0025,0.0,0.0,0.0,0.0025,0.0,0.0,0.0,0.0025,0.01,-0.05,-0.01,0.02,0.0,0.0,0.0,0.02,0.0,0.0,0.0,0.02,-1.829048828125,0.23940429687499998,9.66733703125,0.04,0.0,0.0,0.0,0.04,0.0,0.0,0.0,0.04
1614382877.0809658,490,1614382877,80034971,base_imu_link,0.07172070847752895,0.0580706082791397,-0.676416594951618,0.7307150843547922,0.0025,0.0,0.0,0.0,0.0025,0.0,0.0,0.0,0.0025,0.01,-0.05,-0.01,0.02,0.0,0.0,0.0,0.02,0.0,0.0,0.0,0.02,-1.8194726562499999,0.253960078125,9.67193359375,0.04,0.0,0.0,0.0,0.04,0.0,0.0,0.0,0.04
1614382877.100691,491,1614382877,99977970,base_imu_link,0.07174097457390406,0.05804556949168846,-0.6766716214191025,0.7304789259079382,0.0025,0.0,0.0,0.0,0.0025,0.0,0.0,0.0,0.0025,0.01,-0.05,-0.01,0.02,0.0,0.0,0.0,0.02,0.0,0.0,0.0,0.02,-1.824452265625,0.258556640625,9.66733703125,0.04,0.0,0.0,0.0,0.04,0.0,0.0,0.0,0.04
1614382877.121199,492,1614382877,120265960,base_imu_link,0.07164664749962775,0.05802545579576395,-0.6762298206789018,0.7308987850628421,0.0025,0.0,0.0,0.0,0.0025,0.0,0.0,0.0,0.0025,0.01,-0.05,-0.01,0.02,0.0,0.0,0.0,0.02,0.0,0.0,0.0,0.02,-1.8340284375,0.253960078125,9.662357421874999,0.04,0.0,0.0,0.0,0.04,0.0,0.0,0.0,0.04
1614382877.1411133,493,1614382877,140374898,base_imu_link,0.0717308426182397,0.05805808976968936,-0.6765441184897163,0.7305970162589941,0.0025,0.0,0.0,0.0,0.0025,0.0,0.0,0.0,0.0025,0.01,-0.05,-0.01,0.02,0.0,0.0,0.0,0.02,0.0,0.0,0.0,0.02,-1.824452265625,0.253960078125,9.6573778125,0.04,0.0,0.0,0.0,0.04,0.0,0.0,0.0,0.04
1614382877.1614094,494,1614382877,160460948,base_imu_link,0.0717308426182397,0.05805808976968936,-0.6765441184897163,0.7305970162589941,0.0025,0.0,0.0,0.0,0.0025,0.0,0.0,0.0,0.0025,0.01,-0.05,-0.01,0.02,0.0,0.0,0.0,0.02,0.0,0.0,0.0,0.02,-1.829048828125,0.2681328125,9.66733703125,0.04,0.0,0.0,0.0,0.04,0.0,0.0,0.0,0.04
1614382877.1811705,495,1614382877,180264949,base_imu_link,0.07172054613889213,0.057953926676577006,-0.6763624362912323,0.7307744935467395,0.0025,0.0,0.0,0.0,0.0025,0.0,0.0,0.0,0.0025,0.01,-0.05,-0.01,0.02,0.0,0.0,0.0,0.02,0.0,0.0,0.0,0.02,-1.838625,0.253960078125,9.662357421874999,0.04,0.0,0.0,0.0,0.04,0.0,0.0,0.0,0.04
1614382877.201584,496,1614382877,200350999,base_imu_link,0.07176422089062948,0.05803663354869151,-0.676166553291179,0.7309448939397709,0.0025,0.0,0.0,0.0,0.0025,0.0,0.0,0.0,0.0025,0.01,-0.05,-0.01,0.02,0.0,0.0,0.0,0.02,0.0,0.0,0.0,0.02,-1.829048828125,0.24438390624999998,9.648184687499999,0.04,0.0,0.0,0.0,0.04,0.0,0.0,0.0,0.04
1614382877.2215044,497,1614382877,220496892,base_imu_link,0.07181799935171866,0.05810683309402513,-0.6760982156638841,0.7309972460228642,0.0025,0.0,0.0,0.0,0.0025,0.0,0.0,0.0,0.0025,0.01,-0.05,-0.01,0.02,0.0,0.0,0.0,0.02,0.0,0.0,0.0,0.02,-1.838625,0.253960078125,9.6573778125,0.04,0.0,0.0,0.0,0.04,0.0,0.0,0.0,0.04
1614382877.2416718,498,1614382877,240573883,base_imu_link,0.07180785670236549,0.058119366814452636,-0.675970622279306,0.7311152362878423,0.0025,0.0,0.0,0.0,0.0025,0.0,0.0,0.0,0.0025,0.01,-0.05,-0.01,0.02,0.0,0.0,0.0,0.02,0.0,0.0,0.0,0.02,-1.838625,0.24898046875,9.662357421874999,0.04,0.0,0.0,0.0,0.04,0.0,0.0,0.0,0.04
1614382877.2614448,499,1614382877,260586977,base_imu_link,0.07179780397544434,0.05824856850593921,-0.6758971858089576,0.7311738328378856,0.0025,0.0,0.0,0.0,0.0025,0.0,0.0,0.0,0.0025,0.01,-0.05,-0.01,0.02,0.0,0.0,0.0,0.02,0.0,0.0,0.0,0.02,-1.824452265625,0.24898046875,9.6573778125,0.04,0.0,0.0,0.0,0.04,0.0,0.0,0.0,0.04
1614382877.2814384,500,1614382877,280565977,base_imu_link,0.07180288684857712,0.05824230274377768,-0.6759609901891882,0.73111484689737,0.0025,0.0,0.0,0.0,0.0025,0.0,0.0,0.0,0.0025,0.01,-0.05,-0.01,0.02,0.0,0.0,0.0,0.02,0.0,0.0,0.0,0.02,-1.838625,0.253960078125,9.662357421874999,0.04,0.0,0.0,0.0,0.04,0.0,0.0,0.0,0.04
1614382877.3012707,501,1614382877,300457000,base_imu_link,0.07179272055554001,0.05825483382451252,-0.6758333762814757,0.7312328132101938,0.0025,0.0,0.0,0.0,0.0025,0.0,0.0,0.0,0.0025,0.01,-0.05,-0.01,0.02,0.0,0.0,0.0,0.02,0.0,0.0,0.0,0.02,-1.829048828125,0.24438390624999998,9.6573778125,0.04,0.0,0.0,0.0,0.04,0.0,0.0,0.0,0.04
1614382877.3214653,502,1614382877,320662975,base_imu_link,0.07172890818130888,0.058313811190674594,-0.6758282900148219,0.7312390755226209,0.0025,0.0,0.0,0.0,0.0025,0.0,0.0,0.0,0.0025,0.01,-0.05,-0.01,0.02,0.0,0.0,0.0,0.02,0.0,0.0,0.0,0.02,-1.829048828125,0.23940429687499998,9.662357421874999,0.04,0.0,0.0,0.0,0.04,0.0,0.0,0.0,0.04
1614382877.3416715,503,1614382877,340795993,base_imu_link,0.07171872940882018,0.05832632935860715,-0.6757006544271454,0.731357018673003,0.0025,0.0,0.0,0.0,0.0025,0.0,0.0,0.0,0.0025,0.01,-0.05,-0.01,0.02,0.0,0.0,0.0,0.02,0.0,0.0,0.0,0.02,-1.8340284375,0.24438390624999998,9.6573778125,0.04,0.0,0.0,0.0,0.04,0.0,0.0,0.0,0.04
1614382877.3623595,504,1614382877,360932111,base_imu_link,0.07164471494823473,0.05839780039339115,-0.6755679046593644,0.7314811945110797,0.0025,0.0,0.0,0.0,0.0025,0.0,0.0,0.0,0.0025,0.01,-0.05,-0.01,0.02,0.0,0.0,0.0,0.02,0.0,0.0,0.0,0.02,-1.824452265625,0.24898046875,9.6573778125,0.04,0.0,0.0,0.0,0.04,0.0,0.0,0.0,0.04
1614382877.381771,505,1614382877,380953073,base_imu_link,0.0716345215181472,0.0584103038655533,-0.6754402268179186,0.7315990922119564,0.0025,0.0,0.0,0.0,0.0025,0.0,0.0,0.0,0.0025,0.01,-0.05,-0.01,0.02,0.0,0.0,0.0,0.02,0.0,0.0,0.0,0.02,-1.8194726562499999,0.23940429687499998,9.66733703125,0.04,0.0,0.0,0.0,0.04,0.0,0.0,0.0,0.04
1614382877.401873,506,1614382877,401021957,base_imu_link,0.07155536168781249,0.05837129810727641,-0.6751893712602616,0.7318414682895269,0.0025,0.0,0.0,0.0,0.0025,0.0,0.0,0.0,0.0025,0.01,-0.05,-0.01,0.02,0.0,0.0,0.0,0.02,0.0,0.0,0.0,0.02,-1.829048828125,0.23940429687499998,9.652781249999999,0.04,0.0,0.0,0.0,0.04,0.0,0.0,0.0,0.04
1614382877.421876,507,1614382877,421076059,base_imu_link,0.07149659492562847,0.05842398024049787,-0.6752481380224454,0.7317887861563056,0.0025,0.0,0.0,0.0,0.0025,0.0,0.0,0.0,0.0025,0.01,-0.05,-0.01,0.02,0.0,0.0,0.0,0.02,0.0,0.0,0.0,0.02,-1.838625,0.258556640625,9.652781249999999,0.04,0.0,0.0,0.0,0.04,0.0,0.0,0.0,0.04
1614382877.441861,508,1614382877,441071987,base_imu_link,0.07161412811194579,0.058435305471657976,-0.6751848094136593,0.7318348207527711,0.0025,0.0,0.0,0.0,0.0025,0.0,0.0,0.0,0.0025,0.01,-0.05,-0.01,0.02,0.0,0.0,0.0,0.02,0.0,0.0,0.0,0.02,-1.829048828125,0.24898046875,9.662357421874999,0.04,0.0,0.0,0.0,0.04,0.0,0.0,0.0,0.04
1614382877.4622388,509,1614382877,461157083,base_imu_link,0.07160902839686642,0.05844155476077739,-0.6751209422068127,0.7318937389559945,0.0025,0.0,0.0,0.0,0.0025,0.0,0.0,0.0,0.0025,0.01,-0.05,-0.01,0.02,0.0,0.0,0.0,0.02,0.0,0.0,0.0,0.02,-1.838625,0.24438390624999998,9.67193359375,0.04,0.0,0.0,0.0,0.04,0.0,0.0,0.0,0.04
1614382877.481996,510,1614382877,481147050,base_imu_link,0.07162432590594736,0.05842280555843584,-0.675312528401387,0.7317169676270504,0.0025,0.0,0.0,0.0,0.0025,0.0,0.0,0.0,0.0025,0.01,-0.05,-0.01,0.02,0.0,0.0,0.0,0.02,0.0,0.0,0.0,0.02,-1.829048828125,0.24438390624999998,9.66733703125,0.04,0.0,0.0,0.0,0.04,0.0,0.0,0.0,0.04
1614382877.5023253,511,1614382877,500999927,base_imu_link,0.07157577931246806,0.0584630009799106,-0.6754989690235977,0.731546395097599,0.0025,0.0,0.0,0.0,0.0025,0.0,0.0,0.0,0.0025,0.01,-0.05,-0.01,0.02,0.0,0.0,0.0,0.02,0.0,0.0,0.0,0.02,-1.8340284375,0.253960078125,9.66733703125,0.04,0.0,0.0,0.0,0.04,0.0,0.0,0.0,0.04
1614382877.521966,512,1614382877,521208047,base_imu_link,0.07164981084488933,0.05839154799019926,-0.6756317358632146,0.731422237304595,0.0025,0.0,0.0,0.0,0.0025,0.0,0.0,0.0,0.0025,0.01,-0.05,-0.01,0.02,0.0,0.0,0.0,0.02,0.0,0.0,0.0,0.02,-1.8340284375,0.24898046875,9.67653015625,0.04,0.0,0.0,0.0,0.04,0.0,0.0,0.0,0.04
1614382877.5423753,513,1614382877,541201114,base_imu_link,0.07167528214271873,0.058360279305036136,-0.675950814694297,0.73112736772967,0.0025,0.0,0.0,0.0,0.0025,0.0,0.0,0.0,0.0025,0.01,-0.05,-0.01,0.02,0.0,0.0,0.0,0.02,0.0,0.0,0.0,0.02,-1.829048828125,0.253960078125,9.66733703125,0.04,0.0,0.0,0.0,0.04,0.0,0.0,0.0,0.04
1614382877.562256,514,1614382877,561300039,base_imu_link,0.0716650952608309,0.05837278811275163,-0.6758231986014418,0.7312453322663443,0.0025,0.0,0.0,0.0,0.0025,0.0,0.0,0.0,0.0025,0.01,-0.05,-0.01,0.02,0.0,0.0,0.0,0.02,0.0,0.0,0.0,0.02,-1.8194726562499999,0.253960078125,9.662357421874999,0.04,0.0,0.0,0.0,0.04,0.0,0.0,0.0,0.04
1614382877.581953,515,1614382877,581089973,base_imu_link,0.07167528214271873,0.058360279305036136,-0.675950814694297,0.73112736772967,0.0025,0.0,0.0,0.0,0.0025,0.0,0.0,0.0,0.0025,0.01,-0.05,-0.01,0.02,0.0,0.0,0.0,0.02,0.0,0.0,0.0,0.02,-1.8340284375,0.23940429687499998,9.66733703125,0.04,0.0,0.0,0.0,0.04,0.0,0.0,0.0,0.04
1614382877.6021044,516,1614382877,601317882,base_imu_link,0.07167528214271873,0.058360279305036136,-0.675950814694297,0.73112736772967,0.0025,0.0,0.0,0.0,0.0025,0.0,0.0,0.0,0.0025,0.01,-0.05,-0.01,0.02,0.0,0.0,0.0,0.02,0.0,0.0,0.0,0.02,-1.824452265625,0.23480773437499997,9.662357421874999,0.04,0.0,0.0,0.0,0.04,0.0,0.0,0.0,0.04
1614382877.6218643,517,1614382877,621136903,base_imu_link,0.07155264497106906,0.05835532152893713,-0.6759502936110313,0.7311402574158115,0.0025,0.0,0.0,0.0,0.0025,0.0,0.0,0.0,0.0025,0.01,-0.05,-0.01,0.02,0.0,0.0,0.0,0.02,0.0,0.0,0.0,0.02,-1.81487609375,0.24898046875,9.6573778125,0.04,0.0,0.0,0.0,0.04,0.0,0.0,0.0,0.04
1614382877.6426091,518,1614382877,641494989,base_imu_link,0.07154245895634426,0.05836780893250393,-0.6758226752685096,0.7312582218613429,0.0025,0.0,0.0,0.0,0.0025,0.0,0.0,0.0,0.0025,0.01,-0.05,-0.01,0.02,0.0,0.0,0.0,0.02,0.0,0.0,0.0,0.02,-1.81487609375,0.24438390624999998,9.6573778125,0.04,0.0,0.0,0.0,0.04,0.0,0.0,0.0,0.04
1614382877.6625485,519,1614382877,661561965,base_imu_link,0.07145818891437704,0.05833503789916335,-0.6755081045396313,0.7315596703561884,0.0025,0.0,0.0,0.0,0.0025,0.0,0.0,0.0,0.0025,0.01,-0.05,-0.01,0.02,0.0,0.0,0.0,0.02,0.0,0.0,0.0,0.02,-1.824452265625,0.23480773437499997,9.6573778125,0.04,0.0,0.0,0.0,0.04,0.0,0.0,0.0,0.04
1614382877.6825306,520,1614382877,681386947,base_imu_link,0.07139944358256894,0.05838775632516475,-0.6755668498714393,0.731506951930187,0.0025,0.0,0.0,0.0,0.0025,0.0,0.0,0.0,0.0025,0.01,-0.05,-0.01,0.02,0.0,0.0,0.0,0.02,0.0,0.0,0.0,0.02,-1.829048828125,0.24438390624999998,9.6573778125,0.04,0.0,0.0,0.0,0.04,0.0,0.0,0.0,0.04
1614382877.702294,521,1614382877,701371908,base_imu_link,0.07139434801775286,0.05839398687970578,-0.6755030112750905,0.7315659034739781,0.0025,0.0,0.0,0.0,0.0025,0.0,0.0,0.0,0.0025,0.01,-0.05,-0.01,0.02,0.0,0.0,0.0,0.02,0.0,0.0,0.0,0.02,-1.8340284375,0.253960078125,9.6573778125,0.04,0.0,0.0,0.0,0.04,0.0,0.0,0.0,0.04
1614382877.7223804,522,1614382877,721380949,base_imu_link,0.07146334581974371,0.058445496427263835,-0.6756261113966843,0.7314413659006536,0.0025,0.0,0.0,0.0,0.0025,0.0,0.0,0.0,0.0025,0.01,-0.05,-0.01,0.02,0.0,0.0,0.0,0.02,0.0,0.0,0.0,0.02,-1.8340284375,0.23940429687499998,9.66733703125,0.04,0.0,0.0,0.0,0.04,0.0,0.0,0.0,0.04
1614382877.7425106,523,1614382877,741574048,base_imu_link,0.07147864436574297,0.05842678536439629,-0.6758175791429588,0.731264462334229,0.0025,0.0,0.0,0.0,0.0025,0.0,0.0,0.0,0.0025,0.01,-0.05,-0.01,0.02,0.0,0.0,0.0,0.02,0.0,0.0,0.0,0.02,-1.824452265625,0.24438390624999998,9.662357421874999,0.04,0.0,0.0,0.0,0.04,0.0,0.0,0.0,0.04
1614382877.7629378,524,1614382877,761749029,base_imu_link,0.07147354539469912,0.05843302283036089,-0.6757537617068646,0.7313234357592,0.0025,0.0,0.0,0.0,0.0025,0.0,0.0,0.0,0.0025,0.01,-0.05,-0.01,0.02,0.0,0.0,0.0,0.02,0.0,0.0,0.0,0.02,-1.829048828125,0.24898046875,9.662357421874999,0.04,0.0,0.0,0.0,0.04,0.0,0.0,0.0,0.04
1614382877.7827036,525,1614382877,781584024,base_imu_link,0.071448042375724,0.05846420348434024,-0.6754345973437264,0.7316182193348775,0.0025,0.0,0.0,0.0,0.0025,0.0,0.0,0.0,0.0025,0.01,-0.05,-0.01,0.02,0.0,0.0,0.0,0.02,0.0,0.0,0.0,0.02,-1.829048828125,0.24438390624999998,9.66733703125,0.04,0.0,0.0,0.0,0.04,0.0,0.0,0.0,0.04
1614382877.8029888,526,1614382877,801963090,base_imu_link,0.07142763016636768,0.05848913999366203,-0.6751791732631848,0.7318539459094696,0.0025,0.0,0.0,0.0,0.0025,0.0,0.0,0.0,0.0025,0.01,-0.05,-0.01,0.02,0.0,0.0,0.0,0.02,0.0,0.0,0.0,0.02,-1.829048828125,0.23480773437499997,9.66733703125,0.04,0.0,0.0,0.0,0.04,0.0,0.0,0.0,0.04
1614382877.8224404,527,1614382877,821681976,base_imu_link,0.07140972511337407,0.05849199324816219,-0.6757486598905901,0.7313296702179949,0.0025,0.0,0.0,0.0,0.0025,0.0,0.0,0.0,0.0025,0.01,-0.05,-0.01,0.02,0.0,0.0,0.0,0.02,0.0,0.0,0.0,0.02,-1.824452265625,0.24438390624999998,9.6573778125,0.04,0.0,0.0,0.0,0.04,0.0,0.0,0.0,0.04
1614382877.8433082,528,1614382877,842478990,base_imu_link,0.07140462045213129,0.058498224699539136,-0.6756848367642967,0.7313886376283782,0.0025,0.0,0.0,0.0,0.0025,0.0,0.0,0.0,0.0025,0.01,-0.05,-0.01,0.02,0.0,0.0,0.0,0.02,0.0,0.0,0.0,0.02,-1.824452265625,0.24438390624999998,9.652781249999999,0.04,0.0,0.0,0.0,0.04,0.0,0.0,0.0,0.04
1614382877.862581,529,1614382877,861793041,base_imu_link,0.07139951524711123,0.058504455705426645,-0.6756210084923692,0.7314475994689187,0.0025,0.0,0.0,0.0,0.0025,0.0,0.0,0.0,0.0025,0.01,-0.05,-0.01,0.02,0.0,0.0,0.0,0.02,0.0,0.0,0.0,0.02,-1.829048828125,0.23940429687499998,9.662357421874999,0.04,0.0,0.0,0.0,0.04,0.0,0.0,0.0,0.04
1614382877.8828998,530,1614382877,881840944,base_imu_link,0.07138419636977619,0.058523146049677885,-0.6754294928076416,0.7316244515669917,0.0025,0.0,0.0,0.0,0.0025,0.0,0.0,0.0,0.0025,0.01,-0.05,-0.01,0.02,0.0,0.0,0.0,0.02,0.0,0.0,0.0,0.02,-1.824452265625,0.24898046875,9.6573778125,0.04,0.0,0.0,0.0,0.04,0.0,0.0,0.0,0.04
1614382877.9031262,531,1614382877,902288913,base_imu_link,0.07138419636977619,0.058523146049677885,-0.6754294928076416,0.7316244515669917,0.0025,0.0,0.0,0.0,0.0025,0.0,0.0,0.0,0.0025,0.01,-0.05,-0.01,0.02,0.0,0.0,0.0,0.02,0.0,0.0,0.0,0.02,-1.8194726562499999,0.258556640625,9.662357421874999,0.04,0.0,0.0,0.0,0.04,0.0,0.0,0.0,0.04
1614382877.9228656,532,1614382877,922063112,base_imu_link,0.07145824521590985,0.058451732558107185,-0.6755622785235705,0.7315003226162379,0.0025,0.0,0.0,0.0,0.0025,0.0,0.0,0.0,0.0025,0.01,-0.05,-0.01,0.02,0.0,0.0,0.0,0.02,0.0,0.0,0.0,0.02,-1.829048828125,0.24898046875,9.662357421874999,0.04,0.0,0.0,0.0,0.04,0.0,0.0,0.0,0.04
1614382877.9432719,533,1614382877,942234992,base_imu_link,0.07152717584815171,0.05838653670401312,-0.6756312091558123,0.731435126762144,0.0025,0.0,0.0,0.0,0.0025,0.0,0.0,0.0,0.0025,0.01,-0.05,-0.01,0.02,0.0,0.0,0.0,0.02,0.0,0.0,0.0,0.02,-1.829048828125,0.24898046875,9.662357421874999,0.04,0.0,0.0,0.0,0.04,0.0,0.0,0.0,0.04
1614382877.963307,534,1614382877,962296962,base_imu_link,0.07151698438573904,0.05839901966190396,-0.6755035393537413,0.7315530355124412,0.0025,0.0,0.0,0.0,0.0025,0.0,0.0,0.0,0.0025,0.01,-0.05,-0.01,0.02,0.0,0.0,0.0,0.02,0.0,0.0,0.0,0.02,-1.829048828125,0.24898046875,9.662357421874999,0.04,0.0,0.0,0.0,0.04,0.0,0.0,0.0,0.04
1614382877.9827807,535,1614382877,982028961,base_imu_link,0.07150679074479446,0.05841150084085894,-0.6753758489746559,0.7316709219783588,0.0025,0.0,0.0,0.0,0.0025,0.0,0.0,0.0,0.0025,0.01,-0.05,-0.01,0.02,0.0,0.0,0.0,0.02,0.0,0.0,0.0,0.02,-1.829048828125,0.24438390624999998,9.67193359375,0.04,0.0,0.0,0.0,0.04,0.0,0.0,0.0,0.04
1614382878.0034359,536,1614382878,2348899,base_imu_link,0.07152717584815171,0.05838653670401312,-0.6756312091558123,0.731435126762144,0.0025,0.0,0.0,0.0,0.0025,0.0,0.0,0.0,0.0025,0.01,-0.05,-0.01,0.02,0.0,0.0,0.0,0.02,0.0,0.0,0.0,0.02,-1.829048828125,0.24438390624999998,9.66733703125,0.04,0.0,0.0,0.0,0.04,0.0,0.0,0.0,0.04
1614382878.0231972,537,1614382878,22104024,base_imu_link,0.07152208038928126,0.05839277840530176,-0.6755673768271467,0.7314940839226155,0.0025,0.0,0.0,0.0,0.0025,0.0,0.0,0.0,0.0025,0.01,-0.05,-0.01,0.02,0.0,0.0,0.0,0.02,0.0,0.0,0.0,0.02,-1.829048828125,0.258556640625,9.66733703125,0.04,0.0,0.0,0.0,0.04,0.0,0.0,0.0,0.04
1614382878.043071,538,1614382878,42352914,base_imu_link,0.07149659492562847,0.05842398024049787,-0.6752481380224454,0.7317887861563056,0.0025,0.0,0.0,0.0,0.0025,0.0,0.0,0.0,0.0025,0.01,-0.05,-0.01,0.02,0.0,0.0,0.0,0.02,0.0,0.0,0.0,0.02,-1.838625,0.24898046875,9.67193359375,0.04,0.0,0.0,0.0,0.04,0.0,0.0,0.0,0.04
1614382878.0632744,539,1614382878,62340974,base_imu_link,0.0715937259797801,0.058460299957597925,-0.6749293097401791,0.7320704601217327,0.0025,0.0,0.0,0.0,0.0025,0.0,0.0,0.0,0.0025,0.01,-0.05,-0.01,0.02,0.0,0.0,0.0,0.02,0.0,0.0,0.0,0.02,-1.8340284375,0.23480773437499997,9.67193359375,0.04,0.0,0.0,0.0,0.04,0.0,0.0,0.0,0.04
1614382878.0833814,540,1614382878,82463026,base_imu_link,0.07154515834668294,0.05850046995462704,-0.6751158396483964,0.7318999852357402,0.0025,0.0,0.0,0.0,0.0025,0.0,0.0,0.0,0.0025,0.01,-0.05,-0.01,0.02,0.0,0.0,0.0,0.02,0.0,0.0,0.0,0.02,-1.829048828125,0.24898046875,9.67193359375,0.04,0.0,0.0,0.0,0.04,0.0,0.0,0.0,0.04
1614382878.1032,541,1614382878,102452993,base_imu_link,0.07155026320332607,0.05849422623899662,-0.6751797074003532,0.731841067477775,0.0025,0.0,0.0,0.0,0.0025,0.0,0.0,0.0,0.0025,0.01,-0.05,-0.01,0.02,0.0,0.0,0.0,0.02,0.0,0.0,0.0,0.02,-1.824452265625,0.24898046875,9.67193359375,0.04,0.0,0.0,0.0,0.04,0.0,0.0,0.0,0.04
1614382878.123214,542,1614382878,122426033,base_imu_link,0.07151698438573904,0.05839901966190396,-0.6755035393537413,0.7315530355124412,0.0025,0.0,0.0,0.0,0.0025,0.0,0.0,0.0,0.0025,0.01,-0.05,-0.01,0.02,0.0,0.0,0.0,0.02,0.0,0.0,0.0,0.02,-1.829048828125,0.23940429687499998,9.66733703125,0.04,0.0,0.0,0.0,0.04,0.0,0.0,0.0,0.04
1614382878.1438305,543,1614382878,142833948,base_imu_link,0.07145824521590985,0.058451732558107185,-0.6755622785235705,0.7315003226162379,0.0025,0.0,0.0,0.0,0.0025,0.0,0.0,0.0,0.0025,0.01,-0.05,-0.01,0.02,0.0,0.0,0.0,0.02,0.0,0.0,0.0,0.02,-1.824452265625,0.23940429687499998,9.66733703125,0.04,0.0,0.0,0.0,0.04,0.0,0.0,0.0,0.04
1614382878.1646287,544,1614382878,162641048,base_imu_link,0.07145314406789034,0.05845796824381515,-0.6754984405057559,0.731559273761129,0.0025,0.0,0.0,0.0,0.0025,0.0,0.0,0.0,0.0025,0.01,-0.05,-0.01,0.02,0.0,0.0,0.0,0.02,0.0,0.0,0.0,0.02,-1.829048828125,0.24898046875,9.66733703125,0.04,0.0,0.0,0.0,0.04,0.0,0.0,0.0,0.04
1614382878.1834948,545,1614382878,182725906,base_imu_link,0.07143783735910632,0.058476672629651796,-0.6753068955889678,0.7317360937671517,0.0025,0.0,0.0,0.0,0.0025,0.0,0.0,0.0,0.0025,0.01,-0.05,-0.01,0.02,0.0,0.0,0.0,0.02,0.0,0.0,0.0,0.02,-1.8340284375,0.23940429687499998,9.67193359375,0.04,0.0,0.0,0.0,0.04,0.0,0.0,0.0,0.04
1614382878.2034328,546,1614382878,202497005,base_imu_link,0.07143783735910632,0.058476672629651796,-0.6753068955889678,0.7317360937671517,0.0025,0.0,0.0,0.0,0.0025,0.0,0.0,0.0,0.0025,0.01,-0.05,-0.01,0.02,0.0,0.0,0.0,0.02,0.0,0.0,0.0,0.02,-1.8340284375,0.23940429687499998,9.66733703125,0.04,0.0,0.0,0.0,0.04,0.0,0.0,0.0,0.04
1614382878.2232978,547,1614382878,222615003,base_imu_link,0.07150683229810231,0.0585281895338989,-0.6754300220092321,0.7316115836515874,0.0025,0.0,0.0,0.0,0.0025,0.0,0.0,0.0,0.0025,0.01,-0.05,-0.01,0.02,0.0,0.0,0.0,0.02,0.0,0.0,0.0,0.02,-1.8340284375,0.24898046875,9.66733703125,0.04,0.0,0.0,0.0,0.04,0.0,0.0,0.0,0.04
1614382878.2438996,548,1614382878,242881059,base_imu_link,0.07151193957388098,0.05852194916274163,-0.6754938645922064,0.7315526384771374,0.0025,0.0,0.0,0.0,0.0025,0.0,0.0,0.0,0.0025,0.01,-0.05,-0.01,0.02,0.0,0.0,0.0,0.02,0.0,0.0,0.0,0.02,-1.829048828125,0.23940429687499998,9.662357421874999,0.04,0.0,0.0,0.0,0.04,0.0,0.0,0.0,0.04
1614382878.2639635,549,1614382878,262809991,base_imu_link,0.07147365322677535,0.05854971620998095,-0.6758078934813286,0.7312640690848135,0.0025,0.0,0.0,0.0,0.0025,0.0,0.0,0.0,0.0025,0.01,-0.05,-0.01,0.02,0.0,0.0,0.0,0.02,0.0,0.0,0.0,0.02,-1.824452265625,0.23940429687499998,9.6573778125,0.04,0.0,0.0,0.0,0.04,0.0,0.0,0.0,0.04
1614382878.283485,550,1614382878,282736063,base_imu_link,0.07144809929069934,0.05858089689990252,-0.675488755016635,0.7315588762855838,0.0025,0.0,0.0,0.0,0.0025,0.0,0.0,0.0,0.0025,0.01,-0.05,-0.01,0.02,0.0,0.0,0.0,0.02,0.0,0.0,0.0,0.02,-1.829048828125,0.24438390624999998,9.652781249999999,0.04,0.0,0.0,0.0,0.04,0.0,0.0,0.0,0.04
1614382878.3037229,551,1614382878,302963018,base_imu_link,0.07140718470136667,0.05863076280311851,-0.6749778660030802,0.7320302780842316,0.0025,0.0,0.0,0.0,0.0025,0.0,0.0,0.0,0.0025,0.01,-0.05,-0.01,0.02,0.0,0.0,0.0,0.02,0.0,0.0,0.0,0.02,-1.8482011718749998,0.24898046875,9.662357421874999,0.04,0.0,0.0,0.0,0.04,0.0,0.0,0.0,0.04
1614382878.3236551,552,1614382878,322828054,base_imu_link,0.0714915391881791,0.058663595424490726,-0.6752926253005619,0.7317290568311826,0.0025,0.0,0.0,0.0,0.0025,0.0,0.0,0.0,0.0025,0.01,-0.05,-0.01,0.02,0.0,0.0,0.0,0.02,0.0,0.0,0.0,0.02,-1.8340284375,0.23480773437499997,9.66733703125,0.04,0.0,0.0,0.0,0.04,0.0,0.0,0.0,0.04
1614382878.3441262,553,1614382878,343190908,base_imu_link,0.07151201229007395,0.0586386365960839,-0.67554800577968,0.7314932906619679,0.0025,0.0,0.0,0.0,0.0025,0.0,0.0,0.0,0.0025,0.01,-0.05,-0.01,0.02,0.0,0.0,0.0,0.02,0.0,0.0,0.0,0.02,-1.8340284375,0.24898046875,9.66733703125,0.04,0.0,0.0,0.0,0.04,0.0,0.0,0.0,0.04
1614382878.3650367,554,1614382878,362922906,base_imu_link,0.07152736139838281,0.05861991278574555,-0.6757394871225019,0.7313164075417665,0.0025,0.0,0.0,0.0,0.0025,0.0,0.0,0.0,0.0025,0.01,-0.05,-0.01,0.02,0.0,0.0,0.0,0.02,0.0,0.0,0.0,0.02,-1.8340284375,0.24898046875,9.6573778125,0.04,0.0,0.0,0.0,0.04,0.0,0.0,0.0,0.04
1614382878.383966,555,1614382878,383038997,base_imu_link,0.07163976420089493,0.05863740705865264,-0.6756123647465966,0.7314214457343932,0.0025,0.0,0.0,0.0,0.0025,0.0,0.0,0.0,0.0025,0.01,-0.05,-0.01,0.02,0.0,0.0,0.0,0.02,0.0,0.0,0.0,0.02,-1.829048828125,0.23940429687499998,9.662357421874999,0.04,0.0,0.0,0.0,0.04,0.0,0.0,0.0,0.04
1614382878.404361,556,1614382878,403165102,base_imu_link,0.07159129958536775,0.058677624589124566,-0.6757987092627806,0.7312507960713723,0.0025,0.0,0.0,0.0,0.0025,0.0,0.0,0.0,0.0025,0.01,-0.05,-0.01,0.02,0.0,0.0,0.0,0.02,0.0,0.0,0.0,0.02,-1.8340284375,0.24438390624999998,9.66733703125,0.04,0.0,0.0,0.0,0.04,0.0,0.0,0.0,0.04
1614382878.4237,557,1614382878,422976970,base_imu_link,0.07160153967238121,0.0586651286565412,-0.6759263263096226,0.7311328358088108,0.0025,0.0,0.0,0.0,0.0025,0.0,0.0,0.0,0.0025,0.01,-0.05,-0.01,0.02,0.0,0.0,0.0,0.02,0.0,0.0,0.0,0.02,-1.829048828125,0.26353624999999997,9.66733703125,0.04,0.0,0.0,0.0,0.04,0.0,0.0,0.0,0.04
1614382878.4451933,558,1614382878,444278955,base_imu_link,0.07164488100719447,0.05863115508658259,-0.6756761907362132,0.7313624846482615,0.0025,0.0,0.0,0.0,0.0025,0.0,0.0,0.0,0.0025,0.01,-0.05,-0.01,0.02,0.0,0.0,0.0,0.02,0.0,0.0,0.0,0.02,-1.829048828125,0.253960078125,9.662357421874999,0.04,0.0,0.0,0.0,0.04,0.0,0.0,0.0,0.04
1614382878.4653096,559,1614382878,464545965,base_imu_link,0.07164478748835337,0.05851447836965035,-0.6756220610325313,0.7314218419578616,0.0025,0.0,0.0,0.0,0.0025,0.0,0.0,0.0,0.0025,0.01,-0.05,-0.01,0.02,0.0,0.0,0.0,0.02,0.0,0.0,0.0,0.02,-1.824452265625,0.24898046875,9.6573778125,0.04,0.0,0.0,0.0,0.04,0.0,0.0,0.0,0.04
1614382878.4842577,560,1614382878,483227968,base_imu_link,0.07163968086401853,0.0585207303340036,-0.6755582298632182,0.7314807983200594,0.0025,0.0,0.0,0.0,0.0025,0.0,0.0,0.0,0.0025,0.01,-0.05,-0.01,0.02,0.0,0.0,0.0,0.02,0.0,0.0,0.0,0.02,-1.8194726562499999,0.24438390624999998,9.652781249999999,0.04,0.0,0.0,0.0,0.04,0.0,0.0,0.0,0.04
1614382878.505311,561,1614382878,503318071,base_imu_link,0.0716549991001654,0.058501973104151735,-0.6757497079352025,0.7313039125236274,0.0025,0.0,0.0,0.0,0.0025,0.0,0.0,0.0,0.0025,0.01,-0.05,-0.01,0.02,0.0,0.0,0.0,0.02,0.0,0.0,0.0,0.02,-1.829048828125,0.24438390624999998,9.652781249999999,0.04,0.0,0.0,0.0,0.04,0.0,0.0,0.0,0.04
1614382878.525105,562,1614382878,524023056,base_imu_link,0.07163968086401853,0.0585207303340036,-0.6755582298632182,0.7314807983200594,0.0025,0.0,0.0,0.0,0.0025,0.0,0.0,0.0,0.0025,0.01,-0.05,-0.01,0.02,0.0,0.0,0.0,0.02,0.0,0.0,0.0,0.02,-1.838625,0.23480773437499997,9.6573778125,0.04,0.0,0.0,0.0,0.04,0.0,0.0,0.0,0.04
1614382878.5469282,563,1614382878,545952081,base_imu_link,0.07164999726788705,0.05862490266801076,-0.6757400115802614,0.731303517992486,0.0025,0.0,0.0,0.0,0.0025,0.0,0.0,0.0,0.0025,0.01,-0.05,-0.01,0.02,0.0,0.0,0.0,0.02,0.0,0.0,0.0,0.02,-1.8340284375,0.24438390624999998,9.6573778125,0.04,0.0,0.0,0.0,0.04,0.0,0.0,0.0,0.04
1614382878.5641646,564,1614382878,563406944,base_imu_link,0.07166022815229542,0.05861239649155222,-0.6758676378297084,0.7311855679737999,0.0025,0.0,0.0,0.0,0.0025,0.0,0.0,0.0,0.0025,0.01,-0.05,-0.01,0.02,0.0,0.0,0.0,0.02,0.0,0.0,0.0,0.02,-1.829048828125,0.253960078125,9.662357421874999,0.04,0.0,0.0,0.0,0.04,0.0,0.0,0.0,0.04
1614382878.5840833,565,1614382878,583349943,base_imu_link,0.07164488100719447,0.05863115508658259,-0.6756761907362132,0.7313624846482615,0.0025,0.0,0.0,0.0,0.0025,0.0,0.0,0.0,0.0025,0.01,-0.05,-0.01,0.02,0.0,0.0,0.0,0.02,0.0,0.0,0.0,0.02,-1.8340284375,0.24898046875,9.662357421874999,0.04,0.0,0.0,0.0,0.04,0.0,0.0,0.0,0.04
1614382878.6040728,566,1614382878,603348970,base_imu_link,0.07166022815229542,0.05861239649155222,-0.6758676378297084,0.7311855679737999,0.0025,0.0,0.0,0.0,0.0025,0.0,0.0,0.0,0.0025,0.01,-0.05,-0.01,0.02,0.0,0.0,0.0,0.02,0.0,0.0,0.0,0.02,-1.838625,0.24898046875,9.662357421874999,0.04,0.0,0.0,0.0,0.04,0.0,0.0,0.0,0.04
1614382878.6247134,567,1614382878,623847961,base_imu_link,0.0717726308858727,0.05862989245866481,-0.6757405369089117,0.7312906070394051,0.0025,0.0,0.0,0.0,0.0025,0.0,0.0,0.0,0.0025,0.01,-0.05,-0.01,0.02,0.0,0.0,0.0,0.02,0.0,0.0,0.0,0.02,-1.8340284375,0.253960078125,9.662357421874999,0.04,0.0,0.0,0.0,0.04,0.0,0.0,0.0,0.04
1614382878.6443195,568,1614382878,643490076,base_imu_link,0.0717675141892718,0.05863615557901966,-0.6756767171915546,0.7313495737410731,0.0025,0.0,0.0,0.0,0.0025,0.0,0.0,0.0,0.0025,0.01,-0.05,-0.01,0.02,0.0,0.0,0.0,0.02,0.0,0.0,0.0,0.02,-1.8340284375,0.24898046875,9.662357421874999,0.04,0.0,0.0,0.0,0.04,0.0,0.0,0.0,0.04
1614382878.6645236,569,1614382878,663629055,base_imu_link,0.07177774703589375,0.0586236288918178,-0.6758043514802101,0.7312316347686404,0.0025,0.0,0.0,0.0,0.0025,0.0,0.0,0.0,0.0025,0.01,-0.05,-0.01,0.02,0.0,0.0,0.0,0.02,0.0,0.0,0.0,0.02,-1.8194726562499999,0.23940429687499998,9.662357421874999,0.04,0.0,0.0,0.0,0.04,0.0,0.0,0.0,0.04
1614382878.6847615,570,1614382878,683696985,base_imu_link,0.07172914533372261,0.058547156364669,-0.6759365550111355,0.7311203278469166,0.0025,0.0,0.0,0.0,0.0025,0.0,0.0,0.0,0.0025,0.01,-0.05,-0.01,0.02,0.0,0.0,0.0,0.02,0.0,0.0,0.0,0.02,-1.8194726562499999,0.24898046875,9.6573778125,0.04,0.0,0.0,0.0,0.04,0.0,0.0,0.0,0.04
1614382878.7045548,571,1614382878,703552961,base_imu_link,0.07168051857954474,0.05847070214467358,-0.6760687351261309,0.7310089914849407,0.0025,0.0,0.0,0.0,0.0025,0.0,0.0,0.0,0.0025,0.01,-0.05,-0.01,0.02,0.0,0.0,0.0,0.02,0.0,0.0,0.0,0.02,-1.81487609375,0.24438390624999998,9.6573778125,0.04,0.0,0.0,0.0,0.04,0.0,0.0,0.0,0.04
1614382878.7244725,572,1614382878,723619937,base_imu_link,0.07168051857954474,0.05847070214467358,-0.6760687351261309,0.7310089914849407,0.0025,0.0,0.0,0.0,0.0025,0.0,0.0,0.0,0.0025,0.01,-0.05,-0.01,0.02,0.0,0.0,0.0,0.02,0.0,0.0,0.0,0.02,-1.81487609375,0.24898046875,9.6573778125,0.04,0.0,0.0,0.0,0.04,0.0,0.0,0.0,0.04
1614382878.744536,573,1614382878,743643999,base_imu_link,0.07163186677864082,0.05839426623882872,-0.6762008918179401,0.7308976256883439,0.0025,0.0,0.0,0.0,0.0025,0.0,0.0,0.0,0.0025,0.01,-0.05,-0.01,0.02,0.0,0.0,0.0,0.02,0.0,0.0,0.0,0.02,-1.824452265625,0.24898046875,9.6573778125,0.04,0.0,0.0,0.0,0.04,0.0,0.0,0.0,0.04
1614382878.764792,574,1614382878,763995885,base_imu_link,0.07164715190683314,0.05837551105903343,-0.6763922171936643,0.7307205716633922,0.0025,0.0,0.0,0.0,0.0025,0.0,0.0,0.0,0.0025,0.01,-0.05,-0.01,0.02,0.0,0.0,0.0,0.02,0.0,0.0,0.0,0.02,-1.8194726562499999,0.258556640625,9.6573778125,0.04,0.0,0.0,0.0,0.04,0.0,0.0,0.0,0.04
1614382878.7847478,575,1614382878,783864021,base_imu_link,0.07164696279289295,0.058258827241509124,-0.6763381116963761,0.730779980868372,0.0025,0.0,0.0,0.0,0.0025,0.0,0.0,0.0,0.0025,0.01,-0.05,-0.01,0.02,0.0,0.0,0.0,0.02,0.0,0.0,0.0,0.02,-1.8194726562499999,0.24898046875,9.66733703125,0.04,0.0,0.0,0.0,0.04,0.0,0.0,0.0,0.04
1614382878.805253,576,1614382878,804146051,base_imu_link,0.07161644872246473,0.05829633351579473,-0.6759553834996808,0.7311340104856273,0.0025,0.0,0.0,0.0,0.0025,0.0,0.0,0.0,0.0025,0.01,-0.05,-0.01,0.02,0.0,0.0,0.0,0.02,0.0,0.0,0.0,0.02,-1.829048828125,0.24438390624999998,9.66733703125,0.04,0.0,0.0,0.0,0.04,0.0,0.0,0.0,0.04
1614382878.8249087,577,1614382878,823839902,base_imu_link,0.07153227076231156,0.05838029455808557,-0.6756950363392521,0.7313761640314753,0.0025,0.0,0.0,0.0,0.0025,0.0,0.0,0.0,0.0025,0.01,-0.05,-0.01,0.02,0.0,0.0,0.0,0.02,0.0,0.0,0.0,0.02,-1.829048828125,0.253960078125,9.67193359375,0.04,0.0,0.0,0.0,0.04,0.0,0.0,0.0,0.04
1614382878.845077,578,1614382878,844168901,base_imu_link,0.07160627300211857,0.05830883205611529,-0.6758277662473764,0.7312519758196073,0.0025,0.0,0.0,0.0,0.0025,0.0,0.0,0.0,0.0025,0.01,-0.05,-0.01,0.02,0.0,0.0,0.0,0.02,0.0,0.0,0.0,0.02,-1.838625,0.253960078125,9.67653015625,0.04,0.0,0.0,0.0,0.04,0.0,0.0,0.0,0.04
1614382878.864992,579,1614382878,864141941,base_imu_link,0.07162432590594736,0.05842280555843584,-0.675312528401387,0.7317169676270504,0.0025,0.0,0.0,0.0,0.0025,0.0,0.0,0.0,0.0025,0.01,-0.05,-0.01,0.02,0.0,0.0,0.0,0.02,0.0,0.0,0.0,0.02,-1.829048828125,0.253960078125,9.662357421874999,0.04,0.0,0.0,0.0,0.04,0.0,0.0,0.0,0.04
1614382878.885028,580,1614382878,884123086,base_imu_link,0.07158862408359806,0.05846654746620027,-0.6748654219708914,0.7321293560275062,0.0025,0.0,0.0,0.0,0.0025,0.0,0.0,0.0,0.0025,0.01,-0.05,-0.01,0.02,0.0,0.0,0.0,0.02,0.0,0.0,0.0,0.02,-1.8340284375,0.258556640625,9.66733703125,0.04,0.0,0.0,0.0,0.04,0.0,0.0,0.0,0.04
1614382878.9055305,581,1614382878,904222011,base_imu_link,0.07165251414999362,0.05840765412554463,-0.6748705215699655,0.7321231059537858,0.0025,0.0,0.0,0.0,0.0025,0.0,0.0,0.0,0.0025,0.01,-0.05,-0.01,0.02,0.0,0.0,0.0,0.02,0.0,0.0,0.0,0.02,-1.8340284375,0.26353624999999997,9.662357421874999,0.04,0.0,0.0,0.0,0.04,0.0,0.0,0.0,0.04
1614382878.9248576,582,1614382878,924063920,base_imu_link,0.07178023765774516,0.05840652990540496,-0.6749349492167127,0.732051288552954,0.0025,0.0,0.0,0.0,0.0025,0.0,0.0,0.0,0.0025,0.01,-0.05,-0.01,0.02,0.0,0.0,0.0,0.02,0.0,0.0,0.0,0.02,-1.829048828125,0.24898046875,9.662357421874999,0.04,0.0,0.0,0.0,0.04,0.0,0.0,0.0,0.04
1614382878.9452271,583,1614382878,944250106,base_imu_link,0.071790430426933,0.05839400100103632,-0.6750627059890041,0.7319334790327672,0.0025,0.0,0.0,0.0,0.0025,0.0,0.0,0.0,0.0025,0.01,-0.05,-0.01,0.02,0.0,0.0,0.0,0.02,0.0,0.0,0.0,0.02,-1.829048828125,0.24898046875,9.67193359375,0.04,0.0,0.0,0.0,0.04,0.0,0.0,0.0,0.04
1614382878.9651284,584,1614382878,964284896,base_imu_link,0.07173675777313612,0.05844039157698147,-0.6751853448823854,0.7318219102162642,0.0025,0.0,0.0,0.0,0.0025,0.0,0.0,0.0,0.0025,0.01,-0.05,-0.01,0.02,0.0,0.0,0.0,0.02,0.0,0.0,0.0,0.02,-1.829048828125,0.253960078125,9.66733703125,0.04,0.0,0.0,0.0,0.04,0.0,0.0,0.0,0.04
1614382878.9853039,585,1614382878,984205007,base_imu_link,0.07174185738622219,0.05843413114137568,-0.6752492058207465,0.7317629863931207,0.0025,0.0,0.0,0.0,0.0025,0.0,0.0,0.0,0.0025,0.01,-0.05,-0.01,0.02,0.0,0.0,0.0,0.02,0.0,0.0,0.0,0.02,-1.8340284375,0.24898046875,9.67193359375,0.04,0.0,0.0,0.0,0.04,0.0,0.0,0.0,0.04
1614382879.0054996,586,1614382879,4631042,base_imu_link,0.07172655690808287,0.05845291111299833,-0.6750576075806578,0.7319397411426749,0.0025,0.0,0.0,0.0,0.0025,0.0,0.0,0.0,0.0025,0.01,-0.05,-0.01,0.02,0.0,0.0,0.0,0.02,0.0,0.0,0.0,0.02,-1.8340284375,0.24898046875,9.67653015625,0.04,0.0,0.0,0.0,0.04,0.0,0.0,0.0,0.04
1614382879.0254228,587,1614382879,24339914,base_imu_link,0.07172655690808287,0.05845291111299833,-0.6750576075806578,0.7319397411426749,0.0025,0.0,0.0,0.0,0.0025,0.0,0.0,0.0,0.0025,0.01,-0.05,-0.01,0.02,0.0,0.0,0.0,0.02,0.0,0.0,0.0,0.02,-1.843604609375,0.253960078125,9.66733703125,0.04,0.0,0.0,0.0,0.04,0.0,0.0,0.0,0.04
1614382879.0454803,588,1614382879,44622898,base_imu_link,0.0717750962635574,0.05852945624992918,-0.6749252854973027,0.732050884367903,0.0025,0.0,0.0,0.0,0.0025,0.0,0.0,0.0,0.0025,0.01,-0.05,-0.01,0.02,0.0,0.0,0.0,0.02,0.0,0.0,0.0,0.02,-1.8340284375,0.253960078125,9.67193359375,0.04,0.0,0.0,0.0,0.04,0.0,0.0,0.0,0.04
1614382879.0653267,589,1614382879,64573049,base_imu_link,0.07175977082822423,0.058548244920202705,-0.6747336118968018,0.7322275543054497,0.0025,0.0,0.0,0.0,0.0025,0.0,0.0,0.0,0.0025,0.01,-0.05,-0.01,0.02,0.0,0.0,0.0,0.02,0.0,0.0,0.0,0.02,-1.829048828125,0.24438390624999998,9.67653015625,0.04,0.0,0.0,0.0,0.04,0.0,0.0,0.0,0.04
1614382879.0857377,590,1614382879,84817886,base_imu_link,0.07175466125676416,0.05855450691861672,-0.6746697104192056,0.7322864331327665,0.0025,0.0,0.0,0.0,0.0025,0.0,0.0,0.0,0.0025,0.01,-0.05,-0.01,0.02,0.0,0.0,0.0,0.02,0.0,0.0,0.0,0.02,-1.8340284375,0.253960078125,9.67193359375,0.04,0.0,0.0,0.0,0.04,0.0,0.0,0.0,0.04
1614382879.1061575,591,1614382879,104649066,base_imu_link,0.07174955113886108,0.05856076847111266,-0.6746058038037056,0.7323453063834032,0.0025,0.0,0.0,0.0,0.0025,0.0,0.0,0.0,0.0025,0.01,-0.05,-0.01,0.02,0.0,0.0,0.0,0.02,0.0,0.0,0.0,0.02,-1.829048828125,0.24898046875,9.66733703125,0.04,0.0,0.0,0.0,0.04,0.0,0.0,0.0,0.04
1614382879.1254513,592,1614382879,124543905,base_imu_link,0.0717750962635574,0.05852945624992918,-0.6749252854973027,0.732050884367903,0.0025,0.0,0.0,0.0,0.0025,0.0,0.0,0.0,0.0025,0.01,-0.05,-0.01,0.02,0.0,0.0,0.0,0.02,0.0,0.0,0.0,0.02,-1.8340284375,0.23940429687499998,9.662357421874999,0.04,0.0,0.0,0.0,0.04,0.0,0.0,0.0,0.04
1614382879.1457603,593,1614382879,144848108,base_imu_link,0.0717265484368437,0.05856957841006784,-0.6751118042498719,0.7318804263653228,0.0025,0.0,0.0,0.0,0.0025,0.0,0.0,0.0,0.0025,0.01,-0.05,-0.01,0.02,0.0,0.0,0.0,0.02,0.0,0.0,0.0,0.02,-1.8340284375,0.253960078125,9.66733703125,0.04,0.0,0.0,0.0,0.04,0.0,0.0,0.0,0.04
1614382879.1656134,594,1614382879,164665937,base_imu_link,0.0716907569369945,0.05861338273463443,-0.6746645980055722,0.7322926921198816,0.0025,0.0,0.0,0.0,0.0025,0.0,0.0,0.0,0.0025,0.01,-0.05,-0.01,0.02,0.0,0.0,0.0,0.02,0.0,0.0,0.0,0.02,-1.8340284375,0.26353624999999997,9.662357421874999,0.04,0.0,0.0,0.0,0.04,0.0,0.0,0.0,0.04
1614382879.185622,595,1614382879,184767007,base_imu_link,0.07176998833165976,0.05853571958581125,-0.674861399436337,0.7321097799225695,0.0025,0.0,0.0,0.0,0.0025,0.0,0.0,0.0,0.0025,0.01,-0.05,-0.01,0.02,0.0,0.0,0.0,0.02,0.0,0.0,0.0,0.02,-1.829048828125,0.253960078125,9.66733703125,0.04,0.0,0.0,0.0,0.04,0.0,0.0,0.0,0.04
1614382879.205703,596,1614382879,204732894,base_imu_link,0.07178531048751793,0.05851692824103083,-0.6750530421991976,0.7319330765343596,0.0025,0.0,0.0,0.0,0.0025,0.0,0.0,0.0,0.0025,0.01,-0.05,-0.01,0.02,0.0,0.0,0.0,0.02,0.0,0.0,0.0,0.02,-1.8340284375,0.258556640625,9.662357421874999,0.04,0.0,0.0,0.0,0.04,0.0,0.0,0.0,0.04
1614382879.225771,597,1614382879,224764108,base_imu_link,0.07184408172648515,0.05846428832870831,-0.6749942709602306,0.7319857164466822,0.0025,0.0,0.0,0.0,0.0025,0.0,0.0,0.0,0.0025,0.01,-0.05,-0.01,0.02,0.0,0.0,0.0,0.02,0.0,0.0,0.0,0.02,-1.8340284375,0.258556640625,9.662357421874999,0.04,0.0,0.0,0.0,0.04,0.0,0.0,0.0,0.04
1614382879.2461672,598,1614382879,245187044,base_imu_link,0.07183897948129879,0.05847055768495585,-0.6749303905859761,0.7320446180217142,0.0025,0.0,0.0,0.0,0.0025,0.0,0.0,0.0,0.0025,0.01,-0.05,-0.01,0.02,0.0,0.0,0.0,0.02,0.0,0.0,0.0,0.02,-1.824452265625,0.24898046875,9.67193359375,0.04,0.0,0.0,0.0,0.04,0.0,0.0,0.0,0.04
1614382879.2674642,599,1614382879,266201019,base_imu_link,0.07184918342454755,0.05845801852722976,-0.6750581461941096,0.7319268092972602,0.0025,0.0,0.0,0.0,0.0025,0.0,0.0,0.0,0.0025,0.01,-0.05,-0.01,0.02,0.0,0.0,0.0,0.02,0.0,0.0,0.0,0.02,-1.824452265625,0.23480773437499997,9.662357421874999,0.04,0.0,0.0,0.0,0.04,0.0,0.0,0.0,0.04
1614382879.2861633,600,1614382879,285058021,base_imu_link,0.07173675777313612,0.05844039157698147,-0.6751853448823854,0.7318219102162642,0.0025,0.0,0.0,0.0,0.0025,0.0,0.0,0.0,0.0025,0.01,-0.05,-0.01,0.02,0.0,0.0,0.0,0.02,0.0,0.0,0.0,0.02,-1.829048828125,0.253960078125,9.6573778125,0.04,0.0,0.0,0.0,0.04,0.0,0.0,0.0,0.04
1614382879.306086,601,1614382879,305129051,base_imu_link,0.07175715294725216,0.058415347164740845,-0.6754407577799847,0.7315861814893222,0.0025,0.0,0.0,0.0,0.0025,0.0,0.0,0.0,0.0025,0.01,-0.05,-0.01,0.02,0.0,0.0,0.0,0.02,0.0,0.0,0.0,0.02,-1.8340284375,0.24898046875,9.66733703125,0.04,0.0,0.0,0.0,0.04,0.0,0.0,0.0,0.04
1614382879.3260138,602,1614382879,325023889,base_imu_link,0.07180062772328853,0.058498132885563416,-0.6752446386946525,0.7317563229802478,0.0025,0.0,0.0,0.0,0.0025,0.0,0.0,0.0,0.0025,0.01,-0.05,-0.01,0.02,0.0,0.0,0.0,0.02,0.0,0.0,0.0,0.02,-1.8340284375,0.229828125,9.662357421874999,0.04,0.0,0.0,0.0,0.04,0.0,0.0,0.0,0.04
1614382879.346311,603,1614382879,345139026,base_imu_link,0.07175209740779064,0.058538276224867555,-0.6754310830531344,0.7315857836097377,0.0025,0.0,0.0,0.0,0.0025,0.0,0.0,0.0,0.0025,0.01,-0.05,-0.01,0.02,0.0,0.0,0.0,0.02,0.0,0.0,0.0,0.02,-1.8340284375,0.24898046875,9.6573778125,0.04,0.0,0.0,0.0,0.04,0.0,0.0,0.0,0.04
1614382879.3664117,604,1614382879,365179061,base_imu_link,0.07175209740779064,0.058538276224867555,-0.6754310830531344,0.7315857836097377,0.0025,0.0,0.0,0.0,0.0025,0.0,0.0,0.0,0.0025,0.01,-0.05,-0.01,0.02,0.0,0.0,0.0,0.02,0.0,0.0,0.0,0.02,-1.829048828125,0.258556640625,9.662357421874999,0.04,0.0,0.0,0.0,0.04,0.0,0.0,0.0,0.04
1614382879.3862247,605,1614382879,385193109,base_imu_link,0.07173165932364656,0.058563318864902764,-0.6751756702950106,0.7318215089595872,0.0025,0.0,0.0,0.0,0.0025,0.0,0.0,0.0,0.0025,0.01,-0.05,-0.01,0.02,0.0,0.0,0.0,0.02,0.0,0.0,0.0,0.02,-1.824452265625,0.24438390624999998,9.66733703125,0.04,0.0,0.0,0.0,0.04,0.0,0.0,0.0,0.04
1614382879.4065106,606,1614382879,405348062,base_imu_link,0.07168310295512766,0.058486802220251564,-0.6753079602518413,0.7317103153142447,0.0025,0.0,0.0,0.0,0.0025,0.0,0.0,0.0,0.0025,0.01,-0.05,-0.01,0.02,0.0,0.0,0.0,0.02,0.0,0.0,0.0,0.02,-1.8340284375,0.24898046875,9.66733703125,0.04,0.0,0.0,0.0,0.04,0.0,0.0,0.0,0.04
1614382879.426144,607,1614382879,425276994,base_imu_link,0.07173676966418159,0.058557058873752545,-0.6752395311983924,0.7317625859807122,0.0025,0.0,0.0,0.0,0.0025,0.0,0.0,0.0,0.0025,0.01,-0.05,-0.01,0.02,0.0,0.0,0.0,0.02,0.0,0.0,0.0,0.02,-1.829048828125,0.24898046875,9.67193359375,0.04,0.0,0.0,0.0,0.04,0.0,0.0,0.0,0.04
1614382879.447107,608,1614382879,446055889,base_imu_link,0.0717265484368437,0.05856957841006784,-0.6751118042498719,0.7318804263653228,0.0025,0.0,0.0,0.0,0.0025,0.0,0.0,0.0,0.0025,0.01,-0.05,-0.01,0.02,0.0,0.0,0.0,0.02,0.0,0.0,0.0,0.02,-1.8340284375,0.24438390624999998,9.67193359375,0.04,0.0,0.0,0.0,0.04,0.0,0.0,0.0,0.04
1614382879.4665017,609,1614382879,465337038,base_imu_link,0.07170098581017442,0.05860086944444711,-0.6747923969148518,0.7321749297812055,0.0025,0.0,0.0,0.0,0.0025,0.0,0.0,0.0,0.0025,0.01,-0.05,-0.01,0.02,0.0,0.0,0.0,0.02,0.0,0.0,0.0,0.02,-1.8340284375,0.23940429687499998,9.66733703125,0.04,0.0,0.0,0.0,0.04,0.0,0.0,0.0,0.04
1614382879.4867618,610,1614382879,485574960,base_imu_link,0.07163197191894469,0.05866600725887881,-0.6747233830236219,0.7322400675956372,0.0025,0.0,0.0,0.0,0.0025,0.0,0.0,0.0,0.0025,0.01,-0.05,-0.01,0.02,0.0,0.0,0.0,0.02,0.0,0.0,0.0,0.02,-1.8340284375,0.26353624999999997,9.662357421874999,0.04,0.0,0.0,0.0,0.04,0.0,0.0,0.0,0.04
1614382879.50664,611,1614382879,505431890,base_imu_link,0.0717060994277325,0.058594612129922924,-0.674856288661478,0.7321160402478969,0.0025,0.0,0.0,0.0,0.0025,0.0,0.0,0.0,0.0025,0.01,-0.05,-0.01,0.02,0.0,0.0,0.0,0.02,0.0,0.0,0.0,0.02,-1.829048828125,0.253960078125,9.66733703125,0.04,0.0,0.0,0.0,0.04,0.0,0.0,0.0,0.04
1614382879.5269244,612,1614382879,525600910,base_imu_link,0.0717112124992174,0.05858835436917523,-0.6749201752687795,0.7320571451392057,0.0025,0.0,0.0,0.0,0.0025,0.0,0.0,0.0,0.0025,0.01,-0.05,-0.01,0.02,0.0,0.0,0.0,0.02,0.0,0.0,0.0,0.02,-1.824452265625,0.24438390624999998,9.662357421874999,0.04,0.0,0.0,0.0,0.04,0.0,0.0,0.0,0.04
1614382879.546552,613,1614382879,545454025,base_imu_link,0.0717112124992174,0.05858835436917523,-0.6749201752687795,0.7320571451392057,0.0025,0.0,0.0,0.0,0.0025,0.0,0.0,0.0,0.0025,0.01,-0.05,-0.01,0.02,0.0,0.0,0.0,0.02,0.0,0.0,0.0,0.02,-1.8194726562499999,0.24898046875,9.662357421874999,0.04,0.0,0.0,0.0,0.04,0.0,0.0,0.0,0.04
1614382879.5667486,614,1614382879,565624952,base_imu_link,0.07168310295512766,0.058486802220251564,-0.6753079602518413,0.7317103153142447,0.0025,0.0,0.0,0.0,0.0025,0.0,0.0,0.0,0.0025,0.01,-0.05,-0.01,0.02,0.0,0.0,0.0,0.02,0.0,0.0,0.0,0.02,-1.824452265625,0.253960078125,9.662357421874999,0.04,0.0,0.0,0.0,0.04,0.0,0.0,0.0,0.04
1614382879.586766,615,1614382879,586107969,base_imu_link,0.07169841230742714,0.05846803362368564,-0.6754994984198098,0.7315334950303775,0.0025,0.0,0.0,0.0,0.0025,0.0,0.0,0.0,0.0025,0.01,-0.05,-0.01,0.02,0.0,0.0,0.0,0.02,0.0,0.0,0.0,0.02,-1.824452265625,0.24438390624999998,9.662357421874999,0.04,0.0,0.0,0.0,0.04,0.0,0.0,0.0,0.04
1614382879.606858,616,1614382879,605859994,base_imu_link,0.07169841230742714,0.05846803362368564,-0.6754994984198098,0.7315334950303775,0.0025,0.0,0.0,0.0,0.0025,0.0,0.0,0.0,0.0025,0.01,-0.05,-0.01,0.02,0.0,0.0,0.0,0.02,0.0,0.0,0.0,0.02,-1.829048828125,0.23940429687499998,9.66733703125,0.04,0.0,0.0,0.0,0.04,0.0,0.0,0.0,0.04
1614382879.626911,617,1614382879,625834941,base_imu_link,0.07169841230742714,0.05846803362368564,-0.6754994984198098,0.7315334950303775,0.0025,0.0,0.0,0.0,0.0025,0.0,0.0,0.0,0.0025,0.01,-0.05,-0.01,0.02,0.0,0.0,0.0,0.02,0.0,0.0,0.0,0.02,-1.829048828125,0.253960078125,9.662357421874999,0.04,0.0,0.0,0.0,0.04,0.0,0.0,0.0,0.04
1614382879.6467538,618,1614382879,646002054,base_imu_link,0.07168310295512766,0.058486802220251564,-0.6753079602518413,0.7317103153142447,0.0025,0.0,0.0,0.0,0.0025,0.0,0.0,0.0,0.0025,0.01,-0.05,-0.01,0.02,0.0,0.0,0.0,0.02,0.0,0.0,0.0,0.02,-1.829048828125,0.24438390624999998,9.662357421874999,0.04,0.0,0.0,0.0,0.04,0.0,0.0,0.0,0.04
1614382879.6673849,619,1614382879,665802955,base_imu_link,0.07168820661851068,0.058480546466735214,-0.6753718114512431,0.7316513807913168,0.0025,0.0,0.0,0.0,0.0025,0.0,0.0,0.0,0.0025,0.01,-0.05,-0.01,0.02,0.0,0.0,0.0,0.02,0.0,0.0,0.0,0.02,-1.829048828125,0.24438390624999998,9.66733703125,0.04,0.0,0.0,0.0,0.04,0.0,0.0,0.0,0.04
1614382879.686875,620,1614382879,685772895,base_imu_link,0.07163968086401853,0.0585207303340036,-0.6755582298632182,0.7314807983200594,0.0025,0.0,0.0,0.0,0.0025,0.0,0.0,0.0,0.0025,0.01,-0.05,-0.01,0.02,0.0,0.0,0.0,0.02,0.0,0.0,0.0,0.02,-1.8340284375,0.24898046875,9.66733703125,0.04,0.0,0.0,0.0,0.04,0.0,0.0,0.0,0.04
1614382879.7071161,621,1614382879,706139087,base_imu_link,0.07174698870629255,0.05854453755368727,-0.6753672375779405,0.7316447233053388,0.0025,0.0,0.0,0.0,0.0025,0.0,0.0,0.0,0.0025,0.01,-0.05,-0.01,0.02,0.0,0.0,0.0,0.02,0.0,0.0,0.0,0.02,-1.8194726562499999,0.24898046875,9.66733703125,0.04,0.0,0.0,0.0,0.04,0.0,0.0,0.0,0.04
1614382879.7270958,622,1614382879,726341962,base_imu_link,0.07165246951233113,0.0585243273862307,-0.6749247450744021,0.7320638054179616,0.0025,0.0,0.0,0.0,0.0025,0.0,0.0,0.0,0.0025,0.01,-0.05,-0.01,0.02,0.0,0.0,0.0,0.02,0.0,0.0,0.0,0.02,-1.8194726562499999,0.24898046875,9.662357421874999,0.04,0.0,0.0,0.0,0.04,0.0,0.0,0.0,0.04
1614382879.7466986,623,1614382879,745943069,base_imu_link,0.07163203630331987,0.05854933525042039,-0.6746691654860407,0.7322993539933946,0.0025,0.0,0.0,0.0,0.0025,0.0,0.0,0.0,0.0025,0.01,-0.05,-0.01,0.02,0.0,0.0,0.0,0.02,0.0,0.0,0.0,0.02,-1.8340284375,0.253960078125,9.67193359375,0.04,0.0,0.0,0.0,0.04,0.0,0.0,0.0,0.04
1614382879.7672596,624,1614382879,766366958,base_imu_link,0.07166270711734024,0.05839514751311618,-0.6749982908777392,0.7320053076772508,0.0025,0.0,0.0,0.0,0.0025,0.0,0.0,0.0,0.0025,0.02,-0.06,-0.02,0.02,0.0,0.0,0.0,0.02,0.0,0.0,0.0,0.02,-1.9585186718749998,0.26353624999999997,10.09328515625,0.04,0.0,0.0,0.0,0.04,0.0,0.0,0.0,0.04
1614382879.7874637,625,1614382879,786592960,base_imu_link,0.06987434134951782,0.05708900390586347,-0.6750857661301516,0.7322005397583874,0.0025,0.0,0.0,0.0,0.0025,0.0,0.0,0.0,0.0025,-0.04,-0.29,0.01,0.02,0.0,0.0,0.0,0.02,0.0,0.0,0.0,0.02,0.15321875,0.14862218749999997,8.915416015624999,0.04,0.0,0.0,0.0,0.04,0.0,0.0,0.0,0.04
1614382879.8073902,626,1614382879,806627035,base_imu_link,0.06532630963493175,0.05288389374280937,-0.6754894816023705,0.7325638042495963,0.0025,0.0,0.0,0.0,0.0025,0.0,0.0,0.0,0.0025,-0.01,0.09,-0.04,0.02,0.0,0.0,0.0,0.02,0.0,0.0,0.0,0.02,-0.464635859375,0.08120593749999999,11.323631718749999,0.04,0.0,0.0,0.0,0.04,0.0,0.0,0.0,0.04
1614382879.8275297,627,1614382879,826730012,base_imu_link,0.05791056963654374,0.04742049168227474,-0.6755530621163852,0.7335023675204857,0.0025,0.0,0.0,0.0,0.0025,0.0,0.0,0.0,0.0025,-0.09,-0.43,-0.01,0.02,0.0,0.0,0.0,0.02,0.0,0.0,0.0,0.02,1.8960820312499997,0.19152343749999998,10.370994140625,0.04,0.0,0.0,0.0,0.04,0.0,0.0,0.0,0.04
1614382879.84865,628,1614382879,847131013,base_imu_link,0.049186805567723896,0.038523877165552264,-0.6763332184878547,0.7339413781876833,0.0025,0.0,0.0,0.0,0.0025,0.0,0.0,0.0,0.0025,-0.02,0.23,-0.03,0.02,0.0,0.0,0.0,0.02,0.0,0.0,0.0,0.02,2.6238710937499996,-0.4979609375,9.350940312499999,0.04,0.0,0.0,0.0,0.04,0.0,0.0,0.0,0.04
1614382879.8683474,629,1614382879,867013931,base_imu_link,0.034120296690586235,0.02751821255791273,-0.6770727656771716,0.7346094358974911,0.0025,0.0,0.0,0.0,0.0025,0.0,0.0,0.0,0.0025,-0.0,0.07,-0.01,0.02,0.0,0.0,0.0,0.02,0.0,0.0,0.0,0.02,-3.1363878124999998,0.47880859374999996,9.5378671875,0.04,0.0,0.0,0.0,0.04,0.0,0.0,0.0,0.04
1614382879.887861,630,1614382879,886730909,base_imu_link,0.04242619686465681,0.03457296532010719,-0.6759822115668904,0.7348828325207439,0.0025,0.0,0.0,0.0,0.0025,0.0,0.0,0.0,0.0025,-0.04,-0.09,-0.02,0.02,0.0,0.0,0.0,0.02,0.0,0.0,0.0,0.02,-0.7373652343749999,-0.38304687499999995,11.070054687499999,0.04,0.0,0.0,0.0,0.04,0.0,0.0,0.0,0.04
1614382879.9072697,631,1614382879,906414985,base_imu_link,0.03758562868902001,0.032394442164679106,-0.6760586731355908,0.7351752111646819,0.0025,0.0,0.0,0.0,0.0025,0.0,0.0,0.0,0.0025,0.02,-0.34,-0.05,0.02,0.0,0.0,0.0,0.02,0.0,0.0,0.0,0.02,1.0533789062499999,0.24438390624999998,9.3846484375,0.04,0.0,0.0,0.0,0.04,0.0,0.0,0.0,0.04
1614382879.9285553,632,1614382879,927123069,base_imu_link,0.03396795240328216,0.027666036789715742,-0.6764266219479861,0.7352059532797016,0.0025,0.0,0.0,0.0,0.0025,0.0,0.0,0.0,0.0025,-0.01,0.33,-0.08,0.02,0.0,0.0,0.0,0.02,0.0,0.0,0.0,0.02,1.0438027343749998,-0.35929796875,9.930490234374998,0.04,0.0,0.0,0.0,0.04,0.0,0.0,0.0,0.04
1614382879.947303,633,1614382879,946562051,base_imu_link,0.024384333975976544,0.020606523487034668,-0.6763676934832846,0.7358719444702508,0.0025,0.0,0.0,0.0,0.0025,0.0,0.0,0.0,0.0025,0.03,-0.24,-0.03,0.02,0.0,0.0,0.0,0.02,0.0,0.0,0.0,0.02,-6.411438593749999,0.502940546875,10.734888671875,0.04,0.0,0.0,0.0,0.04,0.0,0.0,0.0,0.04
1614382879.9679081,634,1614382879,966957092,base_imu_link,0.03387289595832684,0.02918306898242641,-0.6755357109872742,0.7359704332275049,0.0025,0.0,0.0,0.0,0.0025,0.0,0.0,0.0,0.0025,0.02,-0.09,-0.02,0.02,0.0,0.0,0.0,0.02,0.0,0.0,0.0,0.02,5.156577031249999,0.14364257812499998,8.1251903125,0.04,0.0,0.0,0.0,0.04,0.0,0.0,0.0,0.04
1614382879.9880617,635,1614382879,986948966,base_imu_link,0.017182573243474338,0.0094696727501208,-0.6750959010195116,0.737469056233136,0.0025,0.0,0.0,0.0,0.0025,0.0,0.0,0.0,0.0025,0.1,0.34,-0.03,0.02,0.0,0.0,0.0,0.02,0.0,0.0,0.0,0.02,-5.0512391406249995,-0.23480773437499997,9.858860468749999,0.04,0.0,0.0,0.0,0.04,0.0,0.0,0.0,0.04
1614382880.007904,636,1614382880,6793022,base_imu_link,0.026614179108159112,0.0221263422454065,-0.6745326991621635,0.7374332161018001,0.0025,0.0,0.0,0.0,0.0025,0.0,0.0,0.0,0.0025,-0.01,-0.27,-0.03,0.02,0.0,0.0,0.0,0.02,0.0,0.0,0.0,0.02,-2.4560965625,0.8476827343749999,9.5378671875,0.04,0.0,0.0,0.0,0.04,0.0,0.0,0.0,0.04
1614382880.0280924,637,1614382880,26906967,base_imu_link,0.03355610289311382,0.025121712695477933,-0.673819758602366,0.7377057817496904,0.0025,0.0,0.0,0.0,0.0025,0.0,0.0,0.0,0.0025,-0.07,-0.26,-0.1,0.02,0.0,0.0,0.0,0.02,0.0,0.0,0.0,0.02,0.330569453125,-0.311417109375,9.422953125,0.04,0.0,0.0,0.0,0.04,0.0,0.0,0.0,0.04
1614382880.0483239,638,1614382880,47358989,base_imu_link,0.030770060523365908,0.023888987723179683,-0.6737210037216056,0.7379583516603782,0.0025,0.0,0.0,0.0,0.0025,0.0,0.0,0.0,0.0025,0.11,0.22,-0.1,0.02,0.0,0.0,0.0,0.02,0.0,0.0,0.0,0.02,0.445483515625,-0.56997375,9.614476562499998,0.04,0.0,0.0,0.0,0.04,0.0,0.0,0.0,0.04
1614382880.067856,639,1614382880,66903114,base_imu_link,0.024480958434788334,0.021243853557010934,-0.6741016860619117,0.7379270276989794,0.0025,0.0,0.0,0.0,0.0025,0.0,0.0,0.0,0.0025,0.08,-0.05,-0.12,0.02,0.0,0.0,0.0,0.02,0.0,0.0,0.0,0.02,-6.258219843749999,1.5417636718749999,10.279828984375,0.04,0.0,0.0,0.0,0.04,0.0,0.0,0.0,0.04
1614382880.087833,640,1614382880,86910963,base_imu_link,0.03409175515548889,0.02676046167306345,-0.6735727681672389,0.7378491416983459,0.0025,0.0,0.0,0.0,0.0025,0.0,0.0,0.0,0.0025,-0.06,-0.5,-0.1,0.02,0.0,0.0,0.0,0.02,0.0,0.0,0.0,0.02,3.5385870312499996,0.27311242187499996,9.17397265625,0.04,0.0,0.0,0.0,0.04,0.0,0.0,0.0,0.04
1614382880.1083138,641,1614382880,107331991,base_imu_link,0.02105473081939425,0.010910184127605187,-0.6739254128583629,0.7384187186793882,0.0025,0.0,0.0,0.0,0.0025,0.0,0.0,0.0,0.0025,0.05,0.15,-0.13,0.02,0.0,0.0,0.0,0.02,0.0,0.0,0.0,0.02,0.45008007812499995,-0.7611141406249999,8.939547968749999,0.04,0.0,0.0,0.0,0.04,0.0,0.0,0.0,0.04
1614382880.128335,642,1614382880,127439975,base_imu_link,0.017878538615484368,0.011562690319002308,-0.6741029490920687,0.7383304653574423,0.0025,0.0,0.0,0.0,0.0025,0.0,0.0,0.0,0.0025,0.13,0.17,-0.1,0.02,0.0,0.0,0.0,0.02,0.0,0.0,0.0,0.02,-4.362137812499999,-0.46923242187499997,11.428969609374999,0.04,0.0,0.0,0.0,0.04,0.0,0.0,0.0,0.04
1614382880.1480103,643,1614382880,147188901,base_imu_link,0.020290386020691165,0.016688042535339682,-0.6735617614516259,0.7386639039384915,0.0025,0.0,0.0,0.0,0.0025,0.0,0.0,0.0,0.0025,-0.01,-0.5,-0.08,0.02,0.0,0.0,0.0,0.02,0.0,0.0,0.0,0.02,0.9097363281249999,0.6270477343749999,8.245083984374999,0.04,0.0,0.0,0.0,0.04,0.0,0.0,0.0,0.04
1614382880.1682806,644,1614382880,167366981,base_imu_link,0.01876229195736015,0.012297550823305359,-0.673513380085084,0.7388345372887087,0.0025,0.0,0.0,0.0,0.0025,0.0,0.0,0.0,0.0025,-0.0,0.04,-0.14,0.02,0.0,0.0,0.0,0.02,0.0,0.0,0.0,0.02,-0.340145625,-0.05745703125,9.55242296875,0.04,0.0,0.0,0.0,0.04,0.0,0.0,0.0,0.04
1614382880.1880083,645,1614382880,187268018,base_imu_link,0.019181818111925066,0.013806257998448252,-0.673230643481603,0.7390547650691035,0.0025,0.0,0.0,0.0,0.0025,0.0,0.0,0.0,0.0025,0.02,0.14,-0.08,0.02,0.0,0.0,0.0,0.02,0.0,0.0,0.0,0.02,-1.6949824218749998,-0.86185546875,10.227351562499999,0.04,0.0,0.0,0.0,0.04,0.0,0.0,0.0,0.04
1614382880.2084208,646,1614382880,207266092,base_imu_link,0.01847593119366711,0.019523586939608692,-0.6728442595753896,0.7392956593109311,0.0025,0.0,0.0,0.0,0.0025,0.0,0.0,0.0,0.0025,0.02,-0.21,-0.08,0.02,0.0,0.0,0.0,0.02,0.0,0.0,0.0,0.02,-4.759357421874999,0.9193125,9.738966796875,0.04,0.0,0.0,0.0,0.04,0.0,0.0,0.0,0.04
1614382880.2284255,647,1614382880,227375984,base_imu_link,0.03182517706051965,0.02907753817216492,-0.6718047724587684,0.7394727869100629,0.0025,0.0,0.0,0.0,0.0025,0.0,0.0,0.0,0.0025,-0.02,-0.14,-0.07,0.02,0.0,0.0,0.0,0.02,0.0,0.0,0.0,0.02,2.250400390625,-0.004979609375,9.427549687499999,0.04,0.0,0.0,0.0,0.04,0.0,0.0,0.0,0.04
1614382880.2483153,648,1614382880,247226953,base_imu_link,0.023163853507436098,0.01915612601563926,-0.6719634586082065,0.7399740461813888,0.0025,0.0,0.0,0.0,0.0025,0.0,0.0,0.0,0.0025,0.09,0.21,-0.1,0.02,0.0,0.0,0.0,0.02,0.0,0.0,0.0,0.02,-2.379870234375,0.27770898437499997,10.653299687499999,0.04,0.0,0.0,0.0,0.04,0.0,0.0,0.0,0.04
1614382880.2694378,649,1614382880,268487930,base_imu_link,0.026850282885707386,0.021821442853543097,-0.6714510581632667,0.7402407469412747,0.0025,0.0,0.0,0.0,0.0025,0.0,0.0,0.0,0.0025,0.03,-0.28,-0.03,0.02,0.0,0.0,0.0,0.02,0.0,0.0,0.0,0.02,-1.388544921875,0.483788203125,8.699760625,0.04,0.0,0.0,0.0,0.04,0.0,0.0,0.0,0.04
1614382880.2886302,650,1614382880,287511110,base_imu_link,0.030284949553747956,0.02353323948032951,-0.6714119453346905,0.7400912160889188,0.0025,0.0,0.0,0.0,0.0025,0.0,0.0,0.0,0.0025,-0.02,-0.0,-0.09,0.02,0.0,0.0,0.0,0.02,0.0,0.0,0.0,0.02,-0.8139746093749999,-0.45965625,9.940066406249999,0.04,0.0,0.0,0.0,0.04,0.0,0.0,0.0,0.04
1614382880.3083425,651,1614382880,307403087,base_imu_link,0.02910719731564017,0.026248928623505082,-0.671447040687159,0.7400152946818079,0.0025,0.0,0.0,0.0,0.0025,0.0,0.0,0.0,0.0025,0.03,0.06,-0.06,0.02,0.0,0.0,0.0,0.02,0.0,0.0,0.0,0.02,-1.7478428906249999,-0.13406640625,10.643723515625,0.04,0.0,0.0,0.0,0.04,0.0,0.0,0.0,0.04
1614382880.3283193,652,1614382880,327325105,base_imu_link,0.03121325688598134,0.028576992338528666,-0.6713059740599442,0.7399712003145007,0.0025,0.0,0.0,0.0,0.0025,0.0,0.0,0.0,0.0025,0.11,-0.1,-0.06,0.02,0.0,0.0,0.0,0.02,0.0,0.0,0.0,0.02,-0.9625967968749999,0.684504765625,9.82974890625,0.04,0.0,0.0,0.0,0.04,0.0,0.0,0.0,0.04
1614382880.347733,653,1614382880,346959114,base_imu_link,0.033628671692657514,0.02591358964614411,-0.6714763874404991,0.7398087992324067,0.0025,0.0,0.0,0.0,0.0025,0.0,0.0,0.0,0.0025,0.06,-0.13,-0.08,0.02,0.0,0.0,0.0,0.02,0.0,0.0,0.0,0.02,-0.181947265625,0.27311242187499996,9.231429687499999,0.04,0.0,0.0,0.0,0.04,0.0,0.0,0.0,0.04
1614382880.3681602,654,1614382880,367155075,base_imu_link,0.03225911097320594,0.023509206335080357,-0.6713556121090111,0.7400596658827234,0.0025,0.0,0.0,0.0,0.0025,0.0,0.0,0.0,0.0025,0.02,-0.03,-0.09,0.02,0.0,0.0,0.0,0.02,0.0,0.0,0.0,0.02,-1.786147578125,-0.08618554687499999,9.8872059375,0.04,0.0,0.0,0.0,0.04,0.0,0.0,0.0,0.04
1614382880.3880966,655,1614382880,387293100,base_imu_link,0.03401895463868651,0.02780026956176352,-0.6710889063421333,0.7400740067872292,0.0025,0.0,0.0,0.0,0.0025,0.0,0.0,0.0,0.0025,-0.02,-0.09,-0.08,0.02,0.0,0.0,0.0,0.02,0.0,0.0,0.0,0.02,-1.709538203125,0.30184093749999996,9.8014034375,0.04,0.0,0.0,0.0,0.04,0.0,0.0,0.0,0.04
1614382880.4082382,656,1614382880,407505035,base_imu_link,0.03739356419916807,0.030740860173071007,-0.6710547370577444,0.7398258313580728,0.0025,0.0,0.0,0.0,0.0025,0.0,0.0,0.0,0.0025,-0.02,-0.02,-0.1,0.02,0.0,0.0,0.0,0.02,0.0,0.0,0.0,0.02,-1.709538203125,0.612875,9.442105468749999,0.04,0.0,0.0,0.0,0.04,0.0,0.0,0.0,0.04
1614382880.4282033,657,1614382880,427273988,base_imu_link,0.04183094592842173,0.032011817244488094,-0.6709594770374689,0.7396207106977503,0.0025,0.0,0.0,0.0,0.0025,0.0,0.0,0.0,0.0025,0.02,-0.03,-0.11,0.02,0.0,0.0,0.0,0.02,0.0,0.0,0.0,0.02,-1.259458125,0.42135156249999994,9.63362890625,0.04,0.0,0.0,0.0,0.04,0.0,0.0,0.0,0.04
1614382880.4482882,658,1614382880,447464942,base_imu_link,0.0441210363747028,0.03204674692496171,-0.671227222755888,0.739243096411571,0.0025,0.0,0.0,0.0,0.0025,0.0,0.0,0.0,0.0025,0.06,-0.01,-0.11,0.02,0.0,0.0,0.0,0.02,0.0,0.0,0.0,0.02,-1.249881953125,-0.014555781249999998,9.767695312499999,0.04,0.0,0.0,0.0,0.04,0.0,0.0,0.0,0.04
1614382880.4679434,659,1614382880,467215061,base_imu_link,0.043486654531573105,0.03296400623722516,-0.6718278557158289,0.7386945359583453,0.0025,0.0,0.0,0.0,0.0025,0.0,0.0,0.0,0.0025,0.02,-0.11,-0.1,0.02,0.0,0.0,0.0,0.02,0.0,0.0,0.0,0.02,-1.51303515625,0.11989367187499998,9.422953125,0.04,0.0,0.0,0.0,0.04,0.0,0.0,0.0,0.04
1614382880.4882238,660,1614382880,487596035,base_imu_link,0.04488605787620327,0.034635709792016474,-0.6717607272445849,0.7385953795870672,0.0025,0.0,0.0,0.0,0.0025,0.0,0.0,0.0,0.0025,0.04,-0.05,-0.06,0.02,0.0,0.0,0.0,0.02,0.0,0.0,0.0,0.02,-0.9863457031249999,-0.7182128906249999,9.7247940625,0.04,0.0,0.0,0.0,0.04,0.0,0.0,0.0,0.04
1614382880.5082462,661,1614382880,507369041,base_imu_link,0.04144260802969282,0.036826816237463866,-0.6714458173329381,0.7389768671830074,0.0025,0.0,0.0,0.0,0.0025,0.0,0.0,0.0,0.0025,0.09,-0.04,-0.04,0.02,0.0,0.0,0.0,0.02,0.0,0.0,0.0,0.02,-2.322413203125,0.507537109375,9.882609375,0.04,0.0,0.0,0.0,0.04,0.0,0.0,0.0,0.04
1614382880.5284336,662,1614382880,527595996,base_imu_link,0.047271432658397255,0.03988849204439524,-0.6712582795122001,0.7386383702754468,0.0025,0.0,0.0,0.0,0.0025,0.0,0.0,0.0,0.0025,0.04,-0.01,-0.07,0.02,0.0,0.0,0.0,0.02,0.0,0.0,0.0,0.02,-1.43182921875,0.622451171875,9.925510625,0.04,0.0,0.0,0.0,0.04,0.0,0.0,0.0,0.04
1614382880.548338,663,1614382880,547473907,base_imu_link,0.04992965123236221,0.03924652567752696,-0.6708583038491479,0.7388612023287606,0.0025,0.0,0.0,0.0,0.0025,0.0,0.0,0.0,0.0025,0.04,-0.01,-0.09,0.02,0.0,0.0,0.0,0.02,0.0,0.0,0.0,0.02,-1.939366328125,0.23940429687499998,9.863457031249999,0.04,0.0,0.0,0.0,0.04,0.0,0.0,0.0,0.04
1614382880.5684638,664,1614382880,567514896,base_imu_link,0.05201500943870461,0.041109325226417776,-0.6711577007779782,0.7383439597226605,0.0025,0.0,0.0,0.0,0.0025,0.0,0.0,0.0,0.0025,0.03,-0.09,-0.09,0.02,0.0,0.0,0.0,0.02,0.0,0.0,0.0,0.02,-1.4938828124999999,0.067033203125,9.662357421874999,0.04,0.0,0.0,0.0,0.04,0.0,0.0,0.0,0.04
1614382880.58884,665,1614382880,588048934,base_imu_link,0.052138692297222414,0.04180828254096527,-0.6717615109271436,0.7377466344981802,0.0025,0.0,0.0,0.0,0.0025,0.0,0.0,0.0,0.0025,0.05,-0.09,-0.09,0.02,0.0,0.0,0.0,0.02,0.0,0.0,0.0,0.02,-1.115815546875,-0.646200078125,9.8780128125,0.04,0.0,0.0,0.0,0.04,0.0,0.0,0.0,0.04
1614382880.6090512,666,1614382880,607991933,base_imu_link,0.048240017399898326,0.04346043959633061,-0.6727333160586062,0.7370305125136563,0.0025,0.0,0.0,0.0,0.0025,0.0,0.0,0.0,0.0025,0.05,-0.07,-0.12,0.02,0.0,0.0,0.0,0.02,0.0,0.0,0.0,0.02,-1.326491328125,-0.9480410156249999,10.0404246875,0.04,0.0,0.0,0.0,0.04,0.0,0.0,0.0,0.04
1614382880.629388,667,1614382880,628318071,base_imu_link,0.044645395103575986,0.04685526553054224,-0.6737225086058533,0.7361449274334123,0.0025,0.0,0.0,0.0,0.0025,0.0,0.0,0.0,0.0025,0.04,-0.03,-0.13,0.02,0.0,0.0,0.0,0.02,0.0,0.0,0.0,0.02,-1.766995234375,-0.45965625,9.6956825,0.04,0.0,0.0,0.0,0.04,0.0,0.0,0.0,0.04
1614382880.6493206,668,1614382880,648607969,base_imu_link,0.04401705050179262,0.05002947476775484,-0.6745334430054835,0.7352307020158731,0.0025,0.0,0.0,0.0,0.0025,0.0,0.0,0.0,0.0025,0.01,-0.1,-0.12,0.02,0.0,0.0,0.0,0.02,0.0,0.0,0.0,0.02,-2.31283703125,0.0720128125,9.557019531249999,0.04,0.0,0.0,0.0,0.04,0.0,0.0,0.0,0.04
1614382880.6689756,669,1614382880,667898893,base_imu_link,0.04821195976348741,0.053624605310026864,-0.6748157812575557,0.7344546752569981,0.0025,0.0,0.0,0.0,0.0025,0.0,0.0,0.0,0.0025,0.03,-0.01,-0.13,0.02,0.0,0.0,0.0,0.02,0.0,0.0,0.0,0.02,-1.7620156249999999,0.04290125,9.8443046875,0.04,0.0,0.0,0.0,0.04,0.0,0.0,0.0,0.04
1614382880.6891112,670,1614382880,688342094,base_imu_link,0.04982224180124496,0.054390881278015085,-0.6753429159195187,0.7338060521507173,0.0025,0.0,0.0,0.0,0.0025,0.0,0.0,0.0,0.0025,0.06,-0.03,-0.14,0.02,0.0,0.0,0.0,0.02,0.0,0.0,0.0,0.02,-2.6621757812499998,0.58912609375,9.834728515624999,0.04,0.0,0.0,0.0,0.04,0.0,0.0,0.0,0.04
1614382880.7092464,671,1614382880,708283901,base_imu_link,0.05506144821363034,0.056661962914690486,-0.6757136747087518,0.7329179276637101,0.0025,0.0,0.0,0.0,0.0025,0.0,0.0,0.0,0.0025,-0.03,-0.08,-0.17,0.02,0.0,0.0,0.0,0.02,0.0,0.0,0.0,0.02,-1.73826671875,1.0200538281249998,9.17397265625,0.04,0.0,0.0,0.0,0.04,0.0,0.0,0.0,0.04
1614382880.7293077,672,1614382880,728189945,base_imu_link,0.059185745098543296,0.054508716917053904,-0.676410403143018,0.732116666848315,0.0025,0.0,0.0,0.0,0.0025,0.0,0.0,0.0,0.0025,-0.0,-0.05,-0.16,0.02,0.0,0.0,0.0,0.02,0.0,0.0,0.0,0.02,-1.2977628125,-0.05286046874999999,9.916317499999998,0.04,0.0,0.0,0.0,0.04,0.0,0.0,0.0,0.04
1614382880.7491865,673,1614382880,748379945,base_imu_link,0.05724183617345154,0.05369114625191785,-0.677219574887962,0.7315834063141502,0.0025,0.0,0.0,0.0,0.0025,0.0,0.0,0.0,0.0025,0.02,-0.07,-0.12,0.02,0.0,0.0,0.0,0.02,0.0,0.0,0.0,0.02,-2.2170753125,0.7277890625,9.681509765625,0.04,0.0,0.0,0.0,0.04,0.0,0.0,0.0,0.04
1614382880.7694957,674,1614382880,768230915,base_imu_link,0.06143296320471969,0.0538380857256333,-0.6774251896051073,0.7310421082576375,0.0025,0.0,0.0,0.0,0.0025,0.0,0.0,0.0,0.0025,0.01,-0.08,-0.08,0.02,0.0,0.0,0.0,0.02,0.0,0.0,0.0,0.02,-1.1012597656249998,0.21565539062499997,9.422953125,0.04,0.0,0.0,0.0,0.04,0.0,0.0,0.0,0.04
1614382880.7892175,675,1614382880,788109064,base_imu_link,0.06021689616808773,0.051999252801405625,-0.6776123033561582,0.7311029814358159,0.0025,0.0,0.0,0.0,0.0025,0.0,0.0,0.0,0.0025,0.02,-0.04,-0.06,0.02,0.0,0.0,0.0,0.02,0.0,0.0,0.0,0.02,-1.9489425,0.24898046875,9.1548203125,0.04,0.0,0.0,0.0,0.04,0.0,0.0,0.0,0.04
1614382880.8092353,676,1614382880,808171033,base_imu_link,0.06233503391149795,0.05335222964927467,-0.6777827910359023,0.7306698100471142,0.0025,0.0,0.0,0.0,0.0025,0.0,0.0,0.0,0.0025,0.04,-0.01,-0.06,0.02,0.0,0.0,0.0,0.02,0.0,0.0,0.0,0.02,-2.341565546875,0.36389453125,9.45666125,0.04,0.0,0.0,0.0,0.04,0.0,0.0,0.0,0.04
1614382880.829219,677,1614382880,828314065,base_imu_link,0.0655585684177885,0.05486277034749945,-0.6780095325008377,0.7300652192611309,0.0025,0.0,0.0,0.0,0.0025,0.0,0.0,0.0,0.0025,0.05,-0.1,-0.05,0.02,0.0,0.0,0.0,0.02,0.0,0.0,0.0,0.02,-2.1163339843749998,0.6270477343749999,9.36549609375,0.04,0.0,0.0,0.0,0.04,0.0,0.0,0.0,0.04
1614382880.849512,678,1614382880,848639011,base_imu_link,0.06956886271862828,0.05504504862414505,-0.6783382252248915,0.7293747103929135,0.0025,0.0,0.0,0.0,0.0025,0.0,0.0,0.0,0.0025,0.08,-0.0,-0.07,0.02,0.0,0.0,0.0,0.02,0.0,0.0,0.0,0.02,-0.9767695312499999,0.6940809375,9.375072265624999,0.04,0.0,0.0,0.0,0.04,0.0,0.0,0.0,0.04
1614382880.8700495,679,1614382880,868406057,base_imu_link,0.06938404165161709,0.050812456329549775,-0.6790169947977647,0.7290678087953525,0.0025,0.0,0.0,0.0,0.0025,0.0,0.0,0.0,0.0025,0.07,-0.03,-0.11,0.02,0.0,0.0,0.0,0.02,0.0,0.0,0.0,0.02,-2.2936846875,1.3406640625,9.54246375,0.04,0.0,0.0,0.0,0.04,0.0,0.0,0.0,0.04
1614382880.88957,680,1614382880,888669013,base_imu_link,0.0750346572771473,0.04934425433317456,-0.6792773925738534,0.7283660952499581,0.0025,0.0,0.0,0.0,0.0025,0.0,0.0,0.0,0.0025,0.01,-0.09,-0.12,0.02,0.0,0.0,0.0,0.02,0.0,0.0,0.0,0.02,-1.235326171875,0.42633117187499997,9.8780128125,0.04,0.0,0.0,0.0,0.04,0.0,0.0,0.0,0.04
1614382880.9094644,681,1614382880,908497095,base_imu_link,0.07332113441595918,0.04734101184081886,-0.680279085536117,0.727738418408695,0.0025,0.0,0.0,0.0,0.0025,0.0,0.0,0.0,0.0025,0.02,-0.04,-0.12,0.02,0.0,0.0,0.0,0.02,0.0,0.0,0.0,0.02,-1.838625,-0.08120593749999999,9.858860468749999,0.04,0.0,0.0,0.0,0.04,0.0,0.0,0.0,0.04
1614382880.931201,682,1614382880,929107904,base_imu_link,0.07178912569216593,0.049444477459177814,-0.6813313588083948,0.7267662241638981,0.0025,0.0,0.0,0.0,0.0025,0.0,0.0,0.0,0.0025,0.01,-0.06,-0.11,0.02,0.0,0.0,0.0,0.02,0.0,0.0,0.0,0.02,-1.8194726562499999,-0.42135156249999994,9.863457031249999,0.04,0.0,0.0,0.0,0.04,0.0,0.0,0.0,0.04
1614382880.9497275,683,1614382880,948956012,base_imu_link,0.06910430392240563,0.05241456967333306,-0.6819305718201603,0.7262561554178996,0.0025,0.0,0.0,0.0,0.0025,0.0,0.0,0.0,0.0025,0.01,-0.06,-0.08,0.02,0.0,0.0,0.0,0.02,0.0,0.0,0.0,0.02,-1.881909296875,-0.014555781249999998,9.729390624999999,0.04,0.0,0.0,0.0,0.04,0.0,0.0,0.0,0.04
1614382880.9691808,684,1614382880,968467950,base_imu_link,0.06865495016688991,0.054253490896715446,-0.6823612723312472,0.7257590168682603,0.0025,0.0,0.0,0.0,0.0025,0.0,0.0,0.0,0.0025,0.01,-0.03,-0.07,0.02,0.0,0.0,0.0,0.02,0.0,0.0,0.0,0.02,-2.1450625,0.38304687499999995,9.576171875,0.04,0.0,0.0,0.0,0.04,0.0,0.0,0.0,0.04
1614382880.9893987,685,1614382880,988651990,base_imu_link,0.07083819318349652,0.05541878450888222,-0.6824124983825186,0.7254129105284691,0.0025,0.0,0.0,0.0,0.0025,0.0,0.0,0.0,0.0025,0.02,-0.04,-0.05,0.02,0.0,0.0,0.0,0.02,0.0,0.0,0.0,0.02,-1.8003203124999998,0.23480773437499997,9.71483484375,0.04,0.0,0.0,0.0,0.04,0.0,0.0,0.0,0.04
1614382881.010112,686,1614382881,8845090,base_imu_link,0.07149652241177878,0.05552044786181933,-0.6822201654305128,0.7255214490504115,0.0025,0.0,0.0,0.0,0.0025,0.0,0.0,0.0,0.0025,0.07,-0.01,-0.02,0.02,0.0,0.0,0.0,0.02,0.0,0.0,0.0,0.02,-1.652081171875,-0.004979609375,9.882609375,0.04,0.0,0.0,0.0,0.04,0.0,0.0,0.0,0.04
1614382881.0301223,687,1614382881,28800964,base_imu_link,0.07023044681344907,0.05551003409576464,-0.6825278238564589,0.7253565262109639,0.0025,0.0,0.0,0.0,0.0025,0.0,0.0,0.0,0.0025,0.06,-0.05,-0.01,0.02,0.0,0.0,0.0,0.02,0.0,0.0,0.0,0.02,-1.5321874999999998,0.21067578124999997,9.9975234375,0.04,0.0,0.0,0.0,0.04,0.0,0.0,0.0,0.04
1614382881.0507257,688,1614382881,49741983,base_imu_link,0.06944205590277794,0.05446956192159809,-0.6822868660281397,0.7257379004444813,0.0025,0.0,0.0,0.0,0.0025,0.0,0.0,0.0,0.0025,0.05,-0.04,-0.01,0.02,0.0,0.0,0.0,0.02,0.0,0.0,0.0,0.02,-1.27861046875,0.1149140625,9.8872059375,0.04,0.0,0.0,0.0,0.04,0.0,0.0,0.0,0.04
1614382881.0695436,689,1614382881,68695068,base_imu_link,0.06710381249470423,0.05308358595621643,-0.6825637417140428,0.7258002133838417,0.0025,0.0,0.0,0.0,0.0025,0.0,0.0,0.0,0.0025,0.01,-0.06,-0.04,0.02,0.0,0.0,0.0,0.02,0.0,0.0,0.0,0.02,-1.920213984375,-0.0383046875,9.648184687499999,0.04,0.0,0.0,0.0,0.04,0.0,0.0,0.0,0.04
1614382881.0901864,690,1614382881,89158058,base_imu_link,0.0665329367405771,0.05480337770174303,-0.6829375349420174,0.7253732015235158,0.0025,0.0,0.0,0.0,0.0025,0.0,0.0,0.0,0.0025,-0.0,-0.09,-0.05,0.02,0.0,0.0,0.0,0.02,0.0,0.0,0.0,0.02,-1.786147578125,-0.139046015625,9.743946406249998,0.04,0.0,0.0,0.0,0.04,0.0,0.0,0.0,0.04
1614382881.109755,691,1614382881,108695983,base_imu_link,0.06535304718869432,0.05626472210382943,-0.683260478707181,0.7250643961101421,0.0025,0.0,0.0,0.0,0.0025,0.0,0.0,0.0,0.0025,0.01,-0.05,-0.07,0.02,0.0,0.0,0.0,0.02,0.0,0.0,0.0,0.02,-1.9248105468749999,0.296861328125,9.599920781249999,0.04,0.0,0.0,0.0,0.04,0.0,0.0,0.0,0.04
1614382881.1301703,692,1614382881,129216909,base_imu_link,0.06670613183424307,0.05701469644450221,-0.6835235148320774,0.7246345430882085,0.0025,0.0,0.0,0.0,0.0025,0.0,0.0,0.0,0.0025,0.0,-0.02,-0.07,0.02,0.0,0.0,0.0,0.02,0.0,0.0,0.0,0.02,-1.560916015625,0.67492859375,9.394224609375,0.04,0.0,0.0,0.0,0.04,0.0,0.0,0.0,0.04
1614382881.1506796,693,1614382881,149162054,base_imu_link,0.06817089820720833,0.0546823843077523,-0.6834577129867019,0.7247400361805802,0.0025,0.0,0.0,0.0,0.0025,0.0,0.0,0.0,0.0025,0.04,-0.06,-0.08,0.02,0.0,0.0,0.0,0.02,0.0,0.0,0.0,0.02,-2.073432734375,0.45965625,9.451681640624999,0.04,0.0,0.0,0.0,0.04,0.0,0.0,0.0,0.04
1614382881.1706722,694,1614382881,169470071,base_imu_link,0.07062876792382322,0.055107500670889265,-0.6836272707152732,0.7243124293050321,0.0025,0.0,0.0,0.0,0.0025,0.0,0.0,0.0,0.0025,0.05,-0.04,-0.09,0.02,0.0,0.0,0.0,0.02,0.0,0.0,0.0,0.02,-1.1108359374999999,-0.12946984374999998,9.925510625,0.04,0.0,0.0,0.0,0.04,0.0,0.0,0.0,0.04
1614382881.190532,695,1614382881,189498901,base_imu_link,0.06725149980570405,0.053370538119344016,-0.68474167515409,0.7237110333150282,0.0025,0.0,0.0,0.0,0.0025,0.0,0.0,0.0,0.0025,0.09,-0.06,-0.11,0.02,0.0,0.0,0.0,0.02,0.0,0.0,0.0,0.02,-1.8673535156249998,-0.349721796875,9.8872059375,0.04,0.0,0.0,0.0,0.04,0.0,0.0,0.0,0.04
1614382881.2096872,696,1614382881,208921909,base_imu_link,0.06548320231217455,0.05550392074087458,-0.6855771739363977,0.722921298326945,0.0025,0.0,0.0,0.0,0.0025,0.0,0.0,0.0,0.0025,0.04,-0.09,-0.14,0.02,0.0,0.0,0.0,0.02,0.0,0.0,0.0,0.02,-1.7045585937499999,0.06243664062499999,9.4995625,0.04,0.0,0.0,0.0,0.04,0.0,0.0,0.0,0.04
1614382881.2301311,697,1614382881,229326963,base_imu_link,0.06467835540322833,0.05589348546082853,-0.6864201109171594,0.7221634579192224,0.0025,0.0,0.0,0.0,0.0025,0.0,0.0,0.0,0.0025,-0.01,-0.09,-0.15,0.02,0.0,0.0,0.0,0.02,0.0,0.0,0.0,0.02,-1.1924249218749998,0.162794921875,9.604900390625,0.04,0.0,0.0,0.0,0.04,0.0,0.0,0.0,0.04
1614382881.2501824,698,1614382881,249128103,base_imu_link,0.06308851770682299,0.05427944242284508,-0.6869107096998189,0.7219607038915012,0.0025,0.0,0.0,0.0,0.0025,0.0,0.0,0.0,0.0025,0.02,-0.03,-0.12,0.02,0.0,0.0,0.0,0.02,0.0,0.0,0.0,0.02,-2.66677234375,0.3064375,9.968794921874998,0.04,0.0,0.0,0.0,0.04,0.0,0.0,0.0,0.04
1614382881.269854,699,1614382881,269047021,base_imu_link,0.06668345052827306,0.05661299233503275,-0.6871235613682997,0.7212555011485606,0.0025,0.0,0.0,0.0,0.0025,0.0,0.0,0.0,0.0025,0.05,-0.08,-0.09,0.02,0.0,0.0,0.0,0.02,0.0,0.0,0.0,0.02,-2.12131359375,0.14364257812499998,10.145762578125,0.04,0.0,0.0,0.0,0.04,0.0,0.0,0.0,0.04
1614382881.2905407,700,1614382881,289613008,base_imu_link,0.0677241685926575,0.05753796935431564,-0.6873053194679161,0.720912072934086,0.0025,0.0,0.0,0.0,0.0025,0.0,0.0,0.0,0.0025,0.05,-0.05,-0.1,0.02,0.0,0.0,0.0,0.02,0.0,0.0,0.0,0.02,-1.383948359375,1.058358515625,9.16937609375,0.04,0.0,0.0,0.0,0.04,0.0,0.0,0.0,0.04
1614382881.310579,701,1614382881,309712886,base_imu_link,0.0701102062669667,0.05395408589140321,-0.6870904437583429,0.7211658877739502,0.0025,0.0,0.0,0.0,0.0025,0.0,0.0,0.0,0.0025,0.03,-0.01,-0.09,0.02,0.0,0.0,0.0,0.02,0.0,0.0,0.0,0.02,-1.498862421875,0.49336437499999997,9.54246375,0.04,0.0,0.0,0.0,0.04,0.0,0.0,0.0,0.04
1614382881.3302467,702,1614382881,329194068,base_imu_link,0.07003017549207927,0.0517543742385927,-0.6870616211507319,0.7213623139653531,0.0025,0.0,0.0,0.0,0.0025,0.0,0.0,0.0,0.0025,0.04,-0.1,-0.05,0.02,0.0,0.0,0.0,0.02,0.0,0.0,0.0,0.02,-2.42775109375,0.11031749999999999,9.892185546875,0.04,0.0,0.0,0.0,0.04,0.0,0.0,0.0,0.04
1614382881.350632,703,1614382881,349829912,base_imu_link,0.0714445191939962,0.05424691882437606,-0.6869498636152949,0.7211468902755721,0.0025,0.0,0.0,0.0,0.0025,0.0,0.0,0.0,0.0025,0.04,-0.09,-0.04,0.02,0.0,0.0,0.0,0.02,0.0,0.0,0.0,0.02,-0.6511796875,-0.48838476562499994,9.681509765625,0.04,0.0,0.0,0.0,0.04,0.0,0.0,0.0,0.04
1614382881.3712196,704,1614382881,369515895,base_imu_link,0.0654523175327226,0.05334912535300654,-0.6870520551605216,0.7216850687476972,0.0025,0.0,0.0,0.0,0.0025,0.0,0.0,0.0,0.0025,0.04,0.03,-0.05,0.02,0.0,0.0,0.0,0.02,0.0,0.0,0.0,0.02,-1.943962890625,0.258556640625,9.59532421875,0.04,0.0,0.0,0.0,0.04,0.0,0.0,0.0,0.04
1614382881.3910162,705,1614382881,389687061,base_imu_link,0.06571689508951639,0.05430267652604192,-0.6867326425179778,0.7218938888245121,0.0025,0.0,0.0,0.0,0.0025,0.0,0.0,0.0,0.0025,-0.05,-0.11,-0.07,0.02,0.0,0.0,0.0,0.02,0.0,0.0,0.0,0.02,-2.49440125,0.7902257031249998,9.523311406249999,0.04,0.0,0.0,0.0,0.04,0.0,0.0,0.0,0.04
1614382881.411025,706,1614382881,410265922,base_imu_link,0.07074132356063931,0.05553559423702342,-0.6861001190214205,0.7219266511165953,0.0025,0.0,0.0,0.0,0.0025,0.0,0.0,0.0,0.0025,-0.01,-0.03,-0.06,0.02,0.0,0.0,0.0,0.02,0.0,0.0,0.0,0.02,-1.0438027343749998,0.483788203125,9.4183565625,0.04,0.0,0.0,0.0,0.04,0.0,0.0,0.0,0.04
1614382881.4308407,707,1614382881,430015087,base_imu_link,0.06982559328978229,0.05269188839632577,-0.6861809678588598,0.7221520828518309,0.0025,0.0,0.0,0.0,0.0025,0.0,0.0,0.0,0.0025,0.03,0.01,-0.07,0.02,0.0,0.0,0.0,0.02,0.0,0.0,0.0,0.02,-2.0971816406249997,0.75153796875,9.51411828125,0.04,0.0,0.0,0.0,0.04,0.0,0.0,0.0,0.04
1614382881.4509513,708,1614382881,449985980,base_imu_link,0.07280709208048794,0.052392610834294015,-0.6857160799101873,0.7223209808840909,0.0025,0.0,0.0,0.0,0.0025,0.0,0.0,0.0,0.0025,0.02,-0.07,-0.06,0.02,0.0,0.0,0.0,0.02,0.0,0.0,0.0,0.02,-1.613776484375,0.258556640625,9.733987187499999,0.04,0.0,0.0,0.0,0.04,0.0,0.0,0.0,0.04
1614382881.4708028,709,1614382881,469968080,base_imu_link,0.07217992282078298,0.05239464181952811,-0.6855251635002348,0.7225649524147745,0.0025,0.0,0.0,0.0,0.0025,0.0,0.0,0.0,0.0025,0.01,-0.02,-0.08,0.02,0.0,0.0,0.0,0.02,0.0,0.0,0.0,0.02,-1.024650390625,-0.19650304687499998,9.82974890625,0.04,0.0,0.0,0.0,0.04,0.0,0.0,0.0,0.04
1614382881.4904869,710,1614382881,489582061,base_imu_link,0.06764118250175237,0.0515538586121536,-0.6853122979488536,0.7232661504398118,0.0025,0.0,0.0,0.0,0.0025,0.0,0.0,0.0,0.0025,0.01,-0.05,-0.05,0.02,0.0,0.0,0.0,0.02,0.0,0.0,0.0,0.02,-2.4323476562499997,-0.229828125,10.122013671875,0.04,0.0,0.0,0.0,0.04,0.0,0.0,0.0,0.04
1614382881.5110078,711,1614382881,509844064,base_imu_link,0.06756429683830566,0.05499224289751535,-0.6844979664027103,0.7237910285464998,0.0025,0.0,0.0,0.0,0.0025,0.0,0.0,0.0,0.0025,0.01,-0.11,-0.01,0.02,0.0,0.0,0.0,0.02,0.0,0.0,0.0,0.02,-1.498862421875,-0.26353624999999997,9.796423828124999,0.04,0.0,0.0,0.0,0.04,0.0,0.0,0.0,0.04
1614382881.5313914,712,1614382881,530565977,base_imu_link,0.06530359943866153,0.05570064202823924,-0.6840567303849421,0.7243612827816374,0.0025,0.0,0.0,0.0,0.0025,0.0,0.0,0.0,0.0025,0.05,-0.04,0.01,0.02,0.0,0.0,0.0,0.02,0.0,0.0,0.0,0.02,-1.7332871093749997,-0.12946984374999998,9.648184687499999,0.04,0.0,0.0,0.0,0.04,0.0,0.0,0.0,0.04
1614382881.5513213,713,1614382881,550261974,base_imu_link,0.0646582363564922,0.05703791941975558,-0.6832598377230319,0.725066881311117,0.0025,0.0,0.0,0.0,0.0025,0.0,0.0,0.0,0.0025,0.03,-0.01,0.0,0.02,0.0,0.0,0.0,0.02,0.0,0.0,0.0,0.02,-2.169194453125,0.7469414062499999,9.897165156249999,0.04,0.0,0.0,0.0,0.04,0.0,0.0,0.0,0.04
1614382881.5712066,714,1614382881,570446968,base_imu_link,0.0681051685222195,0.05667403360756182,-0.6824271886359243,0.725563830510919,0.0025,0.0,0.0,0.0,0.0025,0.0,0.0,0.0,0.0025,0.01,-0.04,-0.02,0.02,0.0,0.0,0.0,0.02,0.0,0.0,0.0,0.02,-1.7907441406249998,0.6270477343749999,9.853880859375,0.04,0.0,0.0,0.0,0.04,0.0,0.0,0.0,0.04
1614382881.5910327,715,1614382881,590265035,base_imu_link,0.06960052372528477,0.05527501240916848,-0.682227800662416,0.7257173472528099,0.0025,0.0,0.0,0.0,0.0025,0.0,0.0,0.0,0.0025,0.02,-0.06,-0.06,0.02,0.0,0.0,0.0,0.02,0.0,0.0,0.0,0.02,-1.594624140625,0.507537109375,9.547443359374999,0.04,0.0,0.0,0.0,0.04,0.0,0.0,0.0,0.04
1614382881.6108735,716,1614382881,610161066,base_imu_link,0.06995189162690557,0.053753284799973225,-0.6822793991706805,0.7257493635535108,0.0025,0.0,0.0,0.0,0.0025,0.0,0.0,0.0,0.0025,0.02,-0.07,-0.09,0.02,0.0,0.0,0.0,0.02,0.0,0.0,0.0,0.02,-1.4172734374999998,-0.067033203125,9.767695312499999,0.04,0.0,0.0,0.0,0.04,0.0,0.0,0.0,0.04
1614382881.6309352,717,1614382881,630232095,base_imu_link,0.06690988685584748,0.053385306636275345,-0.6825408944149862,0.7258174725972635,0.0025,0.0,0.0,0.0,0.0025,0.0,0.0,0.0,0.0025,0.0,-0.11,-0.09,0.02,0.0,0.0,0.0,0.02,0.0,0.0,0.0,0.02,-1.8673535156249998,-0.05745703125,9.643205078125,0.04,0.0,0.0,0.0,0.04,0.0,0.0,0.0,0.04
1614382881.6511002,718,1614382881,650341987,base_imu_link,0.06623535283867221,0.05556846973792809,-0.6825013292313284,0.7257526843235177,0.0025,0.0,0.0,0.0,0.0025,0.0,0.0,0.0,0.0025,-0.02,-0.03,-0.1,0.02,0.0,0.0,0.0,0.02,0.0,0.0,0.0,0.02,-1.460557734375,-0.3064375,9.566595703125,0.04,0.0,0.0,0.0,0.04,0.0,0.0,0.0,0.04
1614382881.6710663,719,1614382881,669991970,base_imu_link,0.06353214393260571,0.05643377582201353,-0.6827980154645504,0.7256485138904848,0.0025,0.0,0.0,0.0,0.0025,0.0,0.0,0.0,0.0025,0.02,-0.06,-0.1,0.02,0.0,0.0,0.0,0.02,0.0,0.0,0.0,0.02,-2.1450625,0.162794921875,9.470833984375,0.04,0.0,0.0,0.0,0.04,0.0,0.0,0.0,0.04
1614382881.691471,720,1614382881,690766096,base_imu_link,0.06580691764986507,0.058233697709781006,-0.6826065049415709,0.7254837320380951,0.0025,0.0,0.0,0.0,0.0025,0.0,0.0,0.0,0.0025,0.06,-0.01,-0.11,0.02,0.0,0.0,0.0,0.02,0.0,0.0,0.0,0.02,-1.7620156249999999,0.598702265625,9.5378671875,0.04,0.0,0.0,0.0,0.04,0.0,0.0,0.0,0.04
1614382881.7115343,721,1614382881,710445880,base_imu_link,0.06816848565169287,0.05661448038510457,-0.6824321317798622,0.7255578844510426,0.0025,0.0,0.0,0.0,0.0025,0.0,0.0,0.0,0.0025,0.09,-0.03,-0.14,0.02,0.0,0.0,0.0,0.02,0.0,0.0,0.0,0.02,-1.78116796875,0.9097363281249999,9.4183565625,0.04,0.0,0.0,0.0,0.04,0.0,0.0,0.0,0.04
1614382881.7314599,722,1614382881,730686902,base_imu_link,0.07100470833355163,0.05418638371092556,-0.6825678300763878,0.7253435906931355,0.0025,0.0,0.0,0.0,0.0025,0.0,0.0,0.0,0.0025,0.05,-0.06,-0.16,0.02,0.0,0.0,0.0,0.02,0.0,0.0,0.0,0.02,-1.326491328125,0.6082784375,9.4612578125,0.04,0.0,0.0,0.0,0.04,0.0,0.0,0.0,0.04
1614382881.7509427,723,1614382881,750070095,base_imu_link,0.07092830229757058,0.051738073840190434,-0.6831827028788088,0.7249508549796302,0.0025,0.0,0.0,0.0,0.0025,0.0,0.0,0.0,0.0025,0.03,-0.05,-0.15,0.02,0.0,0.0,0.0,0.02,0.0,0.0,0.0,0.02,-1.7620156249999999,0.22025195312499998,10.09328515625,0.04,0.0,0.0,0.0,0.04,0.0,0.0,0.0,0.04
1614382881.7712092,724,1614382881,770441055,base_imu_link,0.07004965255753029,0.051476002852336555,-0.6836987156920942,0.7245683773584771,0.0025,0.0,0.0,0.0,0.0025,0.0,0.0,0.0,0.0025,0.02,-0.11,-0.1,0.02,0.0,0.0,0.0,0.02,0.0,0.0,0.0,0.02,-1.766995234375,0.24438390624999998,9.858860468749999,0.04,0.0,0.0,0.0,0.04,0.0,0.0,0.0,0.04
1614382881.7911031,725,1614382881,790293931,base_imu_link,0.06980738355884418,0.05193639436881581,-0.6839162555892646,0.7243535707659587,0.0025,0.0,0.0,0.0,0.0025,0.0,0.0,0.0,0.0025,0.0,-0.05,-0.08,0.02,0.0,0.0,0.0,0.02,0.0,0.0,0.0,0.02,-1.412676875,-0.09576171874999999,9.528291015625,0.04,0.0,0.0,0.0,0.04,0.0,0.0,0.0,0.04
1614382881.8114903,726,1614382881,810579061,base_imu_link,0.06751621676591643,0.052544962883884605,-0.6838613274284758,0.7245786859940831,0.0025,0.0,0.0,0.0,0.0025,0.0,0.0,0.0,0.0025,0.0,-0.03,-0.04,0.02,0.0,0.0,0.0,0.02,0.0,0.0,0.0,0.02,-2.111737421875,-0.34474218749999996,9.982967656249999,0.04,0.0,0.0,0.0,0.04,0.0,0.0,0.0,0.04
1614382881.8318975,727,1614382881,831012964,base_imu_link,0.0672704645100648,0.056009345766865164,-0.6833529270347817,0.7248216435126397,0.0025,0.0,0.0,0.0,0.0025,0.0,0.0,0.0,0.0025,0.05,0.0,-0.02,0.02,0.0,0.0,0.0,0.02,0.0,0.0,0.0,0.02,-2.12131359375,-0.28268859375,10.193643437499999,0.04,0.0,0.0,0.0,0.04,0.0,0.0,0.0,0.04
1614382881.8520696,728,1614382881,851207017,base_imu_link,0.06633480115112209,0.057851165692523826,-0.6829537389974542,0.7251393846521196,0.0025,0.0,0.0,0.0,0.0025,0.0,0.0,0.0,0.0025,0.05,-0.11,-0.02,0.02,0.0,0.0,0.0,0.02,0.0,0.0,0.0,0.02,-1.6471015624999998,0.58912609375,9.576171875,0.04,0.0,0.0,0.0,0.04,0.0,0.0,0.0,0.04
1614382881.8716054,729,1614382881,870677947,base_imu_link,0.06781966728992866,0.05598789359931077,-0.6824781882837702,0.7255958730697815,0.0025,0.0,0.0,0.0,0.0025,0.0,0.0,0.0,0.0025,0.04,-0.05,-0.07,0.02,0.0,0.0,0.0,0.02,0.0,0.0,0.0,0.02,-0.545841796875,0.090782109375,9.54246375,0.04,0.0,0.0,0.0,0.04,0.0,0.0,0.0,0.04
1614382881.8911154,730,1614382881,890474081,base_imu_link,0.06409009562193069,0.05232613655974164,-0.6831053200216464,0.7256180516180859,0.0025,0.0,0.0,0.0,0.0025,0.0,0.0,0.0,0.0025,0.06,-0.0,-0.1,0.02,0.0,0.0,0.0,0.02,0.0,0.0,0.0,0.02,-2.231248046875,0.16739148437499998,9.978371093749999,0.04,0.0,0.0,0.0,0.04,0.0,0.0,0.0,0.04
1614382881.9118736,731,1614382881,910953998,base_imu_link,0.06466100732967521,0.054173738047161184,-0.6831629718132042,0.7253774977075456,0.0025,0.0,0.0,0.0,0.0025,0.0,0.0,0.0,0.0025,-0.04,-0.13,-0.07,0.02,0.0,0.0,0.0,0.02,0.0,0.0,0.0,0.02,-2.092585078125,0.45008007812499995,9.782251093749998,0.04,0.0,0.0,0.0,0.04,0.0,0.0,0.0,0.04
1614382881.9319692,732,1614382881,930877923,base_imu_link,0.06644568093782842,0.055483802863501054,-0.6828231478619773,0.7254371563742601,0.0025,0.0,0.0,0.0,0.0025,0.0,0.0,0.0,0.0025,-0.07,-0.03,-0.07,0.02,0.0,0.0,0.0,0.02,0.0,0.0,0.0,0.02,-1.326491328125,0.26353624999999997,9.40839734375,0.04,0.0,0.0,0.0,0.04,0.0,0.0,0.0,0.04
1614382881.952021,733,1614382881,951374053,base_imu_link,0.06564863224763542,0.05468803666177239,-0.682564205908553,0.7258137368102935,0.0025,0.0,0.0,0.0,0.0025,0.0,0.0,0.0,0.0025,-0.01,-0.0,-0.07,0.02,0.0,0.0,0.0,0.02,0.0,0.0,0.0,0.02,-2.322413203125,0.4979609375,9.284290156249998,0.04,0.0,0.0,0.0,0.04,0.0,0.0,0.0,0.04
1614382881.972152,734,1614382881,971235036,base_imu_link,0.06924944853329532,0.05620579051639154,-0.6819668143139536,0.7259247117743958,0.0025,0.0,0.0,0.0,0.0025,0.0,0.0,0.0,0.0025,0.04,-0.04,-0.08,0.02,0.0,0.0,0.0,0.02,0.0,0.0,0.0,0.02,-1.8482011718749998,0.7086367187499999,9.24598546875,0.04,0.0,0.0,0.0,0.04,0.0,0.0,0.0,0.04
1614382881.9918618,735,1614382881,990937948,base_imu_link,0.07193665320059847,0.05534342454725121,-0.6822988065359993,0.7254175086701662,0.0025,0.0,0.0,0.0,0.0025,0.0,0.0,0.0,0.0025,0.03,-0.01,-0.09,0.02,0.0,0.0,0.0,0.02,0.0,0.0,0.0,0.02,-1.5417636718749999,0.296861328125,9.8014034375,0.04,0.0,0.0,0.0,0.04,0.0,0.0,0.0,0.04
1614382882.0121205,736,1614382882,10960102,base_imu_link,0.07130115718350771,0.054008938893057794,-0.6832103795912043,0.7247225377499866,0.0025,0.0,0.0,0.0,0.0025,0.0,0.0,0.0,0.0025,0.05,-0.06,-0.09,0.02,0.0,0.0,0.0,0.02,0.0,0.0,0.0,0.02,-1.8960820312499997,0.06243664062499999,10.00212,0.04,0.0,0.0,0.0,0.04,0.0,0.0,0.0,0.04
1614382882.0317354,737,1614382882,31024932,base_imu_link,0.07046136901822685,0.05454839117844455,-0.6836680576637031,0.7243325585849778,0.0025,0.0,0.0,0.0,0.0025,0.0,0.0,0.0,0.0025,0.03,-0.11,-0.06,0.02,0.0,0.0,0.0,0.02,0.0,0.0,0.0,0.02,-1.7620156249999999,0.11031749999999999,9.681509765625,0.04,0.0,0.0,0.0,0.04,0.0,0.0,0.0,0.04
1614382882.052357,738,1614382882,51167011,base_imu_link,0.07019212983404703,0.05457163195402509,-0.6833511759229776,0.7246558992100447,0.0025,0.0,0.0,0.0,0.0025,0.0,0.0,0.0,0.0025,0.07,-0.07,-0.02,0.02,0.0,0.0,0.0,0.02,0.0,0.0,0.0,0.02,-1.249881953125,-0.1578153125,9.45666125,0.04,0.0,0.0,0.0,0.04,0.0,0.0,0.0,0.04
1614382882.0721068,739,1614382882,71180105,base_imu_link,0.06777325447965885,0.05421511633384658,-0.6837413552118102,0.7245448683906744,0.0025,0.0,0.0,0.0,0.0025,0.0,0.0,0.0,0.0025,0.06,-0.02,-0.03,0.02,0.0,0.0,0.0,0.02,0.0,0.0,0.0,0.02,-2.5135535937499998,0.612875,9.67193359375,0.04,0.0,0.0,0.0,0.04,0.0,0.0,0.0,0.04
1614382882.0922103,740,1614382882,91195106,base_imu_link,0.07187725461686319,0.055847930329094055,-0.6833273288543685,0.724415923753373,0.0025,0.0,0.0,0.0,0.0025,0.0,0.0,0.0,0.0025,0.02,-0.05,-0.07,0.02,0.0,0.0,0.0,0.02,0.0,0.0,0.0,0.02,-1.886505859375,0.8189542187499999,9.619073125,0.04,0.0,0.0,0.0,0.04,0.0,0.0,0.0,0.04
1614382882.1122534,741,1614382882,111361026,base_imu_link,0.07423137058056405,0.05432761946853941,-0.6839553550461783,0.7237011024506379,0.0025,0.0,0.0,0.0,0.0025,0.0,0.0,0.0,0.0025,0.01,-0.05,-0.11,0.02,0.0,0.0,0.0,0.02,0.0,0.0,0.0,0.02,-1.7524394531249998,0.507537109375,9.4183565625,0.04,0.0,0.0,0.0,0.04,0.0,0.0,0.0,0.04
1614382882.1322412,742,1614382882,131361007,base_imu_link,0.07512354404588036,0.05356985492390621,-0.6850172798895949,0.7226603974385746,0.0025,0.0,0.0,0.0,0.0025,0.0,0.0,0.0,0.0025,0.03,-0.04,-0.13,0.02,0.0,0.0,0.0,0.02,0.0,0.0,0.0,0.02,-1.838625,0.502940546875,9.51411828125,0.04,0.0,0.0,0.0,0.04,0.0,0.0,0.0,0.04
1614382882.153624,743,1614382882,152621984,base_imu_link,0.07575331396433102,0.05270643586466326,-0.6858331780226843,0.721883868059933,0.0025,0.0,0.0,0.0,0.0025,0.0,0.0,0.0,0.0025,0.04,-0.1,-0.11,0.02,0.0,0.0,0.0,0.02,0.0,0.0,0.0,0.02,-1.1828487499999998,-0.023748906249999997,9.59072765625,0.04,0.0,0.0,0.0,0.04,0.0,0.0,0.0,0.04
1614382882.17317,744,1614382882,172024965,base_imu_link,0.07257010877310789,0.05172574174864391,-0.6873872132858437,0.7208029175609195,0.0025,0.0,0.0,0.0,0.0025,0.0,0.0,0.0,0.0025,0.04,-0.04,-0.09,0.02,0.0,0.0,0.0,0.02,0.0,0.0,0.0,0.02,-1.383948359375,-0.8764112499999999,10.00212,0.04,0.0,0.0,0.0,0.04,0.0,0.0,0.0,0.04
1614382882.1925173,745,1614382882,191415071,base_imu_link,0.0671620710550662,0.053964102633637295,-0.6887624696150358,0.7198495622616834,0.0025,0.0,0.0,0.0,0.0025,0.0,0.0,0.0,0.0025,0.05,-0.06,-0.08,0.02,0.0,0.0,0.0,0.02,0.0,0.0,0.0,0.02,-1.8531807812499999,-0.6940809375,10.141166015624998,0.04,0.0,0.0,0.0,0.04,0.0,0.0,0.0,0.04
1614382882.2120793,746,1614382882,211196899,base_imu_link,0.06438281736493698,0.05696281564320374,-0.6900179754926085,0.7186691060281035,0.0025,0.0,0.0,0.0,0.0025,0.0,0.0,0.0,0.0025,0.03,-0.06,-0.11,0.02,0.0,0.0,0.0,0.02,0.0,0.0,0.0,0.02,-2.058876953125,0.14364257812499998,9.925510625,0.04,0.0,0.0,0.0,0.04,0.0,0.0,0.0,0.04
1614382882.2325196,747,1614382882,231666088,base_imu_link,0.06517803466074391,0.058234570096125454,-0.6909766996164801,0.7175735218293655,0.0025,0.0,0.0,0.0,0.0025,0.0,0.0,0.0,0.0025,-0.01,-0.05,-0.13,0.02,0.0,0.0,0.0,0.02,0.0,0.0,0.0,0.02,-1.594624140625,0.59372265625,9.475813593749999,0.04,0.0,0.0,0.0,0.04,0.0,0.0,0.0,0.04
1614382882.2534323,748,1614382882,251207113,base_imu_link,0.06668592851071332,0.056393500193946,-0.6926798214277844,0.7159381433205748,0.0025,0.0,0.0,0.0,0.0025,0.0,0.0,0.0,0.0025,0.01,-0.02,-0.14,0.02,0.0,0.0,0.0,0.02,0.0,0.0,0.0,0.02,-1.6903858593749999,0.22025195312499998,9.79144421875,0.04,0.0,0.0,0.0,0.04,0.0,0.0,0.0,0.04
1614382882.2722507,749,1614382882,271291017,base_imu_link,0.06665539742756593,0.055785431086070494,-0.6945851126073876,0.7141404378807416,0.0025,0.0,0.0,0.0,0.0025,0.0,0.0,0.0,0.0025,0.03,-0.07,-0.14,0.02,0.0,0.0,0.0,0.02,0.0,0.0,0.0,0.02,-2.0351280468749997,0.229828125,10.21279578125,0.04,0.0,0.0,0.0,0.04,0.0,0.0,0.0,0.04
1614382882.2927346,750,1614382882,291543006,base_imu_link,0.06718350012941872,0.055976275571846416,-0.6958692294561158,0.7128246975095748,0.0025,0.0,0.0,0.0,0.0025,0.0,0.0,0.0,0.0025,0.02,-0.1,-0.12,0.02,0.0,0.0,0.0,0.02,0.0,0.0,0.0,0.02,-0.9721729687499999,0.407178828125,9.509138671874998,0.04,0.0,0.0,0.0,0.04,0.0,0.0,0.0,0.04
1614382882.3124373,751,1614382882,311362981,base_imu_link,0.06559665427700842,0.05264052228498329,-0.6973532739620781,0.7117755725336447,0.0025,0.0,0.0,0.0,0.0025,0.0,0.0,0.0,0.0025,0.01,-0.04,-0.09,0.02,0.0,0.0,0.0,0.02,0.0,0.0,0.0,0.02,-1.66165734375,0.2681328125,9.3034425,0.04,0.0,0.0,0.0,0.04,0.0,0.0,0.0,0.04
1614382882.33219,752,1614382882,331260919,base_imu_link,0.06590785908113656,0.052439689600177156,-0.6982316282972637,0.7109000114723096,0.0025,0.0,0.0,0.0,0.0025,0.0,0.0,0.0,0.0025,0.0,-0.07,-0.05,0.02,0.0,0.0,0.0,0.02,0.0,0.0,0.0,0.02,-2.1596182812499998,0.258556640625,9.614476562499998,0.04,0.0,0.0,0.0,0.04,0.0,0.0,0.0,0.04
1614382882.3524842,753,1614382882,351680040,base_imu_link,0.06755722965685627,0.05372668174001424,-0.6990002326692157,0.7098930476618857,0.0025,0.0,0.0,0.0,0.0025,0.0,0.0,0.0,0.0025,-0.0,-0.09,-0.05,0.02,0.0,0.0,0.0,0.02,0.0,0.0,0.0,0.02,-2.379870234375,0.51711328125,9.528291015625,0.04,0.0,0.0,0.0,0.04,0.0,0.0,0.0,0.04
1614382882.3727343,754,1614382882,371758937,base_imu_link,0.07132972290360831,0.05510448546383495,-0.7001896528914312,0.7082443196355601,0.0025,0.0,0.0,0.0,0.0025,0.0,0.0,0.0,0.0025,0.02,-0.04,-0.07,0.02,0.0,0.0,0.0,0.02,0.0,0.0,0.0,0.02,-1.455578125,0.6270477343749999,9.159416875,0.04,0.0,0.0,0.0,0.04,0.0,0.0,0.0,0.04
1614382882.3926358,755,1614382882,391741991,base_imu_link,0.07234886819930272,0.052720617474072085,-0.7014744659597074,0.7070500345590655,0.0025,0.0,0.0,0.0,0.0025,0.0,0.0,0.0,0.0025,0.05,-0.04,-0.09,0.02,0.0,0.0,0.0,0.02,0.0,0.0,0.0,0.02,-1.47013390625,0.8427031249999999,9.03990625,0.04,0.0,0.0,0.0,0.04,0.0,0.0,0.0,0.04
1614382882.4130816,756,1614382882,412134885,base_imu_link,0.07417735419403661,0.04987930810027414,-0.7030269818353285,0.7055230949867757,0.0025,0.0,0.0,0.0,0.0025,0.0,0.0,0.0,0.0025,0.07,-0.04,-0.1,0.02,0.0,0.0,0.0,0.02,0.0,0.0,0.0,0.02,-1.48928625,0.46923242187499997,9.772291874999999,0.04,0.0,0.0,0.0,0.04,0.0,0.0,0.0,0.04
1614382882.4326408,757,1614382882,431792974,base_imu_link,0.07380957931397522,0.04797380943970825,-0.7048679249777372,0.703855004917146,0.0025,0.0,0.0,0.0,0.0025,0.0,0.0,0.0,0.0025,0.05,-0.07,-0.11,0.02,0.0,0.0,0.0,0.02,0.0,0.0,0.0,0.02,-1.537167109375,-0.11031749999999999,10.164914921874999,0.04,0.0,0.0,0.0,0.04,0.0,0.0,0.0,0.04
1614382882.4548366,758,1614382882,453713893,base_imu_link,0.07123543076010366,0.048523877359010884,-0.7066581239726392,0.7022857271466794,0.0025,0.0,0.0,0.0,0.0025,0.0,0.0,0.0,0.0025,0.01,-0.07,-0.12,0.02,0.0,0.0,0.0,0.02,0.0,0.0,0.0,0.02,-1.714134765625,-0.564994140625,10.064556640625,0.04,0.0,0.0,0.0,0.04,0.0,0.0,0.0,0.04
1614382882.4726224,759,1614382882,471777915,base_imu_link,0.06813032887500804,0.05147859129266827,-0.7083944806238521,0.7006321950549863,0.0025,0.0,0.0,0.0,0.0025,0.0,0.0,0.0,0.0025,0.0,-0.04,-0.12,0.02,0.0,0.0,0.0,0.02,0.0,0.0,0.0,0.02,-1.7428632812499998,-0.0720128125,9.7247940625,0.04,0.0,0.0,0.0,0.04,0.0,0.0,0.0,0.04
1614382882.4923453,760,1614382882,491688966,base_imu_link,0.0673036635808671,0.05301828456020604,-0.7102202983505412,0.6987463103170954,0.0025,0.0,0.0,0.0,0.0025,0.0,0.0,0.0,0.0025,-0.01,-0.03,-0.12,0.02,0.0,0.0,0.0,0.02,0.0,0.0,0.0,0.02,-2.0301484375,0.3064375,9.54246375,0.04,0.0,0.0,0.0,0.04,0.0,0.0,0.0,0.04
1614382882.5128686,761,1614382882,512026071,base_imu_link,0.06960226085330311,0.05386641154495519,-0.7119649542130602,0.6966777152771383,0.0025,0.0,0.0,0.0,0.0025,0.0,0.0,0.0,0.0025,0.04,-0.0,-0.12,0.02,0.0,0.0,0.0,0.02,0.0,0.0,0.0,0.02,-2.0014199218749997,0.1149140625,9.992926874999998,0.04,0.0,0.0,0.0,0.04,0.0,0.0,0.0,0.04
1614382882.534678,762,1614382882,532418966,base_imu_link,0.07027244298276618,0.05451969857798391,-0.7132988486964353,0.6951935979801163,0.0025,0.0,0.0,0.0,0.0025,0.0,0.0,0.0,0.0025,0.05,-0.05,-0.1,0.02,0.0,0.0,0.0,0.02,0.0,0.0,0.0,0.02,-1.996823359375,-0.05745703125,10.3085575,0.04,0.0,0.0,0.0,0.04,0.0,0.0,0.0,0.04
1614382882.5530884,763,1614382882,552195072,base_imu_link,0.06978281044471553,0.05511913316999052,-0.714695793670665,0.693759441762405,0.0025,0.0,0.0,0.0,0.0025,0.0,0.0,0.0,0.0025,0.04,-0.09,-0.07,0.02,0.0,0.0,0.0,0.02,0.0,0.0,0.0,0.02,-1.6425049999999999,-0.0720128125,9.839708125,0.04,0.0,0.0,0.0,0.04,0.0,0.0,0.0,0.04
1614382882.5733235,764,1614382882,572341918,base_imu_link,0.06871594831466313,0.05494818523497091,-0.7159726669105205,0.6925618785521166,0.0025,0.0,0.0,0.0,0.0025,0.0,0.0,0.0,0.0025,0.07,-0.07,-0.05,0.02,0.0,0.0,0.0,0.02,0.0,0.0,0.0,0.02,-0.9384648437499999,-0.296861328125,9.489986328125,0.04,0.0,0.0,0.0,0.04,0.0,0.0,0.0,0.04
1614382882.5925562,765,1614382882,591865062,base_imu_link,0.06480763400046483,0.05371861707313928,-0.7173995399951023,0.6915577927909041,0.0025,0.0,0.0,0.0,0.0025,0.0,0.0,0.0,0.0025,0.04,-0.04,-0.05,0.02,0.0,0.0,0.0,0.02,0.0,0.0,0.0,0.02,-2.384466796875,0.28268859375,9.935469843749999,0.04,0.0,0.0,0.0,0.04,0.0,0.0,0.0,0.04
1614382882.61304,766,1614382882,612231016,base_imu_link,0.06696592588685493,0.055220533356694496,-0.7185308123162637,0.6900577723771023,0.0025,0.0,0.0,0.0,0.0025,0.0,0.0,0.0,0.0025,-0.02,-0.1,-0.08,0.02,0.0,0.0,0.0,0.02,0.0,0.0,0.0,0.02,-1.714134765625,0.162794921875,9.820555781249999,0.04,0.0,0.0,0.0,0.04,0.0,0.0,0.0,0.04
1614382882.6333284,767,1614382882,632318019,base_imu_link,0.06728417616945573,0.055243023699956637,-0.720139528196255,0.6883459216839735,0.0025,0.0,0.0,0.0,0.0025,0.0,0.0,0.0,0.0025,0.01,-0.01,-0.12,0.02,0.0,0.0,0.0,0.02,0.0,0.0,0.0,0.02,-2.020572265625,0.430927734375,9.37009265625,0.04,0.0,0.0,0.0,0.04,0.0,0.0,0.0,0.04
1614382882.6533303,768,1614382882,652563095,base_imu_link,0.06901867584418697,0.055162408216248696,-0.7218057117896645,0.6864328412396328,0.0025,0.0,0.0,0.0,0.0025,0.0,0.0,0.0,0.0025,-0.02,-0.09,-0.13,0.02,0.0,0.0,0.0,0.02,0.0,0.0,0.0,0.02,-2.054280390625,0.7998018749999999,9.241005859374999,0.04,0.0,0.0,0.0,0.04,0.0,0.0,0.0,0.04
1614382882.6736655,769,1614382882,672601938,base_imu_link,0.07239614229124346,0.05385455851160453,-0.7230227188844331,0.6849062951133009,0.0025,0.0,0.0,0.0,0.0025,0.0,0.0,0.0,0.0025,0.02,-0.08,-0.12,0.02,0.0,0.0,0.0,0.02,0.0,0.0,0.0,0.02,-1.1682929687499999,0.416755,9.37009265625,0.04,0.0,0.0,0.0,0.04,0.0,0.0,0.0,0.04
1614382882.6935244,770,1614382882,692657947,base_imu_link,0.0719389918206467,0.05075836257081346,-0.724743771344413,0.6833702041956733,0.0025,0.0,0.0,0.0,0.0025,0.0,0.0,0.0,0.0025,0.1,-0.03,-0.12,0.02,0.0,0.0,0.0,0.02,0.0,0.0,0.0,0.02,-1.09168359375,-0.35431835937499995,9.968794921874998,0.04,0.0,0.0,0.0,0.04,0.0,0.0,0.0,0.04
1614382882.713328,771,1614382882,712594985,base_imu_link,0.06782469810809065,0.049754452020231786,-0.7268494759872633,0.6816261028509352,0.0025,0.0,0.0,0.0,0.0025,0.0,0.0,0.0,0.0025,0.1,-0.08,-0.14,0.02,0.0,0.0,0.0,0.02,0.0,0.0,0.0,0.02,-1.9535390624999998,-0.5745703124999999,9.9209140625,0.04,0.0,0.0,0.0,0.04,0.0,0.0,0.0,0.04
1614382882.733418,772,1614382882,732307910,base_imu_link,0.06601126279755012,0.05305654846835375,-0.7287322806564185,0.6795415947370644,0.0025,0.0,0.0,0.0,0.0025,0.0,0.0,0.0,0.0025,0.02,-0.07,-0.15,0.02,0.0,0.0,0.0,0.02,0.0,0.0,0.0,0.02,-1.594624140625,0.0,9.571575312499998,0.04,0.0,0.0,0.0,0.04,0.0,0.0,0.0,0.04
1614382882.753243,773,1614382882,752415895,base_imu_link,0.06536271250327189,0.05347777632655657,-0.7303495836763525,0.6778328177929717,0.0025,0.0,0.0,0.0,0.0025,0.0,0.0,0.0,0.0025,0.0,-0.03,-0.15,0.02,0.0,0.0,0.0,0.02,0.0,0.0,0.0,0.02,-1.939366328125,-0.047880859374999994,9.71023828125,0.04,0.0,0.0,0.0,0.04,0.0,0.0,0.0,0.04
1614382882.773677,774,1614382882,772567987,base_imu_link,0.06641091019946561,0.05501661346369175,-0.7317441499013433,0.6761015177727571,0.0025,0.0,0.0,0.0,0.0025,0.0,0.0,0.0,0.0025,0.05,0.01,-0.16,0.02,0.0,0.0,0.0,0.02,0.0,0.0,0.0,0.02,-1.829048828125,0.27311242187499996,9.968794921874998,0.04,0.0,0.0,0.0,0.04,0.0,0.0,0.0,0.04
1614382882.7932928,775,1614382882,792547941,base_imu_link,0.06736053392237366,0.05435624469270846,-0.7331364387952778,0.6745509018919009,0.0025,0.0,0.0,0.0,0.0025,0.0,0.0,0.0,0.0025,0.04,-0.06,-0.15,0.02,0.0,0.0,0.0,0.02,0.0,0.0,0.0,0.02,-2.04930078125,0.9193125,9.719814453124998,0.04,0.0,0.0,0.0,0.04,0.0,0.0,0.0,0.04
1614382882.813738,776,1614382882,812865972,base_imu_link,0.07140464782189643,0.05238158960732302,-0.7340809006805763,0.6732627842051234,0.0025,0.0,0.0,0.0,0.0025,0.0,0.0,0.0,0.0025,0.02,-0.04,-0.15,0.02,0.0,0.0,0.0,0.02,0.0,0.0,0.0,0.02,-1.1924249218749998,0.483788203125,9.5378671875,0.04,0.0,0.0,0.0,0.04,0.0,0.0,0.0,0.04
1614382882.8341138,777,1614382882,832829952,base_imu_link,0.07074151587359058,0.04961027727244268,-0.7351713469858429,0.672352250603714,0.0025,0.0,0.0,0.0,0.0025,0.0,0.0,0.0,0.0025,0.03,-0.02,-0.11,0.02,0.0,0.0,0.0,0.02,0.0,0.0,0.0,0.02,-2.0014199218749997,0.43590734375,9.523311406249999,0.04,0.0,0.0,0.0,0.04,0.0,0.0,0.0,0.04
1614382882.8536289,778,1614382882,852562904,base_imu_link,0.0723786806911311,0.04934822212697178,-0.7358185788489426,0.6714887181293822,0.0025,0.0,0.0,0.0,0.0025,0.0,0.0,0.0,0.0025,0.03,-0.11,-0.07,0.02,0.0,0.0,0.0,0.02,0.0,0.0,0.0,0.02,-1.99184375,-0.05286046874999999,9.796423828124999,0.04,0.0,0.0,0.0,0.04,0.0,0.0,0.0,0.04
1614382882.873648,779,1614382882,872875928,base_imu_link,0.07202590308060311,0.050874097596141074,-0.7365782983034428,0.6705792316703569,0.0025,0.0,0.0,0.0,0.0025,0.0,0.0,0.0,0.0025,0.02,-0.1,-0.07,0.02,0.0,0.0,0.0,0.02,0.0,0.0,0.0,0.02,-1.292783203125,0.14364257812499998,9.54246375,0.04,0.0,0.0,0.0,0.04,0.0,0.0,0.0,0.04
1614382882.8940487,780,1614382882,893111944,base_imu_link,0.07010028457182425,0.0498646887527614,-0.7377730612055854,0.6695448999715248,0.0025,0.0,0.0,0.0,0.0025,0.0,0.0,0.0,0.0025,-0.01,-0.05,-0.08,0.02,0.0,0.0,0.0,0.02,0.0,0.0,0.0,0.02,-2.1404659374999997,0.39760265625,9.432529296875,0.04,0.0,0.0,0.0,0.04,0.0,0.0,0.0,0.04
1614382882.9139707,781,1614382882,913228034,base_imu_link,0.07227266611031168,0.050692018269561726,-0.7382140442725004,0.6687652845774104,0.0025,0.0,0.0,0.0,0.0025,0.0,0.0,0.0,0.0025,-0.01,-0.08,-0.07,0.02,0.0,0.0,0.0,0.02,0.0,0.0,0.0,0.02,-1.518014765625,0.5316690625,9.394224609375,0.04,0.0,0.0,0.0,0.04,0.0,0.0,0.0,0.04
1614382882.9336762,782,1614382882,932837963,base_imu_link,0.07333844246697702,0.04871803690849909,-0.7390476314305228,0.6678747069722242,0.0025,0.0,0.0,0.0,0.0025,0.0,0.0,0.0,0.0025,0.07,-0.02,-0.08,0.02,0.0,0.0,0.0,0.02,0.0,0.0,0.0,0.02,-1.3598164062499998,0.26353624999999997,9.71483484375,0.04,0.0,0.0,0.0,0.04,0.0,0.0,0.0,0.04
1614382882.9536083,783,1614382882,952605962,base_imu_link,0.07220282328276188,0.04696961154335653,-0.7399358894355281,0.6671397810254747,0.0025,0.0,0.0,0.0,0.0025,0.0,0.0,0.0,0.0025,0.06,-0.05,-0.09,0.02,0.0,0.0,0.0,0.02,0.0,0.0,0.0,0.02,-1.69996203125,0.3064375,10.145762578125,0.04,0.0,0.0,0.0,0.04,0.0,0.0,0.0,0.04
1614382882.9740334,784,1614382882,973226070,base_imu_link,0.07156733154269844,0.04647978541058158,-0.7408427011708505,0.6662355729964603,0.0025,0.0,0.0,0.0,0.0025,0.0,0.0,0.0,0.0025,-0.01,-0.09,-0.09,0.02,0.0,0.0,0.0,0.02,0.0,0.0,0.0,0.02,-1.211577265625,-0.3064375,10.01207921875,0.04,0.0,0.0,0.0,0.04,0.0,0.0,0.0,0.04
1614382882.9938762,785,1614382882,993175029,base_imu_link,0.06787825781937161,0.04717338713754951,-0.7419798848465736,0.6653067444002376,0.0025,0.0,0.0,0.0,0.0025,0.0,0.0,0.0,0.0025,-0.01,-0.02,-0.09,0.02,0.0,0.0,0.0,0.02,0.0,0.0,0.0,0.02,-1.9152343749999998,-0.296861328125,9.853880859375,0.04,0.0,0.0,0.0,0.04,0.0,0.0,0.0,0.04
1614382883.0138264,786,1614382883,13091087,base_imu_link,0.06694837961735917,0.050147683028831616,-0.7427488920512714,0.6643246252473701,0.0025,0.0,0.0,0.0,0.0025,0.0,0.0,0.0,0.0025,-0.02,-0.04,-0.07,0.02,0.0,0.0,0.0,0.02,0.0,0.0,0.0,0.02,-2.269552734375,0.24898046875,9.609879999999999,0.04,0.0,0.0,0.0,0.04,0.0,0.0,0.0,0.04
1614382883.0344996,787,1614382883,33190011,base_imu_link,0.06979233624505546,0.05191588540269112,-0.7430458656036057,0.6635635706198012,0.0025,0.0,0.0,0.0,0.0025,0.0,0.0,0.0,0.0025,0.01,-0.04,-0.07,0.02,0.0,0.0,0.0,0.02,0.0,0.0,0.0,0.02,-1.9010616406249998,0.47421203125,9.489986328125,0.04,0.0,0.0,0.0,0.04,0.0,0.0,0.0,0.04
1614382883.0543926,788,1614382883,53445100,base_imu_link,0.07242560730614044,0.051442627815648824,-0.7432294585608409,0.6631124786769713,0.0025,0.0,0.0,0.0,0.0025,0.0,0.0,0.0,0.0025,0.06,0.01,-0.07,0.02,0.0,0.0,0.0,0.02,0.0,0.0,0.0,0.02,-2.169194453125,0.340145625,9.8872059375,0.04,0.0,0.0,0.0,0.04,0.0,0.0,0.0,0.04
1614382883.073935,789,1614382883,73242902,base_imu_link,0.07419191783770474,0.0515402532603559,-0.7436631239620273,0.6624230669900165,0.0025,0.0,0.0,0.0,0.0025,0.0,0.0,0.0,0.0025,0.05,-0.09,-0.07,0.02,0.0,0.0,0.0,0.02,0.0,0.0,0.0,0.02,-1.6279492187499998,0.44050390624999997,9.528291015625,0.04,0.0,0.0,0.0,0.04,0.0,0.0,0.0,0.04
1614382883.094347,790,1614382883,93353986,base_imu_link,0.07499682541927437,0.04997161314372089,-0.7441774714068418,0.6618747654257294,0.0025,0.0,0.0,0.0,0.0025,0.0,0.0,0.0,0.0025,0.07,-0.03,-0.05,0.02,0.0,0.0,0.0,0.02,0.0,0.0,0.0,0.02,-1.4364257812499999,0.311417109375,9.346343749999999,0.04,0.0,0.0,0.0,0.04,0.0,0.0,0.0,0.04
1614382883.1143527,791,1614382883,113514900,base_imu_link,0.07436822561781437,0.04818286809793121,-0.744661833103299,0.6615334704756439,0.0025,0.0,0.0,0.0,0.0025,0.0,0.0,0.0,0.0025,0.06,-0.08,-0.05,0.02,0.0,0.0,0.0,0.02,0.0,0.0,0.0,0.02,-1.829048828125,0.7373652343749999,9.427549687499999,0.04,0.0,0.0,0.0,0.04,0.0,0.0,0.0,0.04
1614382883.1347125,792,1614382883,133812904,base_imu_link,0.07565723633257292,0.046318463124966965,-0.745356439138845,0.6607377401045892,0.0025,0.0,0.0,0.0,0.0025,0.0,0.0,0.0,0.0025,-0.0,-0.14,-0.09,0.02,0.0,0.0,0.0,0.02,0.0,0.0,0.0,0.02,-2.10216125,0.39760265625,9.810596562499999,0.04,0.0,0.0,0.0,0.04,0.0,0.0,0.0,0.04
1614382883.1548963,793,1614382883,153563976,base_imu_link,0.07407240597223587,0.046102210481353496,-0.7465319779428524,0.6596043289510386,0.0025,0.0,0.0,0.0,0.0025,0.0,0.0,0.0,0.0025,-0.11,-0.35,-0.16,0.02,0.0,0.0,0.0,0.02,0.0,0.0,0.0,0.02,-3.1601367187499996,1.364796015625,9.2743309375,0.04,0.0,0.0,0.0,0.04,0.0,0.0,0.0,0.04
1614382883.175144,794,1614382883,174407005,base_imu_link,0.07849771000102483,0.045777034639621836,-0.7475345874940178,0.6579776691684504,0.0025,0.0,0.0,0.0,0.0025,0.0,0.0,0.0,0.0025,-0.22,-0.51,-0.2,0.02,0.0,0.0,0.0,0.02,0.0,0.0,0.0,0.02,-2.906176640625,1.1349678906249998,9.308039062499999,0.04,0.0,0.0,0.0,0.04,0.0,0.0,0.0,0.04
1614382883.1951897,795,1614382883,193808078,base_imu_link,0.08088018016582489,0.045259780528802716,-0.7485686182442333,0.656547768637399,0.0025,0.0,0.0,0.0,0.0025,0.0,0.0,0.0,0.0025,-0.21,-0.52,-0.17,0.02,0.0,0.0,0.0,0.02,0.0,0.0,0.0,0.02,-2.55185828125,0.349721796875,9.992926874999998,0.04,0.0,0.0,0.0,0.04,0.0,0.0,0.0,0.04
1614382883.2148604,796,1614382883,214047908,base_imu_link,0.07860706724833184,0.046070064242689196,-0.7502407333570845,0.654856717283342,0.0025,0.0,0.0,0.0,0.0025,0.0,0.0,0.0,0.0025,-0.17,-0.49,-0.19,0.02,0.0,0.0,0.0,0.02,0.0,0.0,0.0,0.02,-2.752957890625,0.430927734375,9.729390624999999,0.04,0.0,0.0,0.0,0.04,0.0,0.0,0.0,0.04
1614382883.235059,797,1614382883,233855962,base_imu_link,0.07772335439756896,0.047829383873911425,-0.7514255517562001,0.6534761437017593,0.0025,0.0,0.0,0.0,0.0025,0.0,0.0,0.0,0.0025,-0.21,-0.46,-0.16,0.02,0.0,0.0,0.0,0.02,0.0,0.0,0.0,0.02,-2.4227714843749997,0.36389453125,8.877111328124998,0.04,0.0,0.0,0.0,0.04,0.0,0.0,0.0,0.04
1614382883.254711,798,1614382883,253763914,base_imu_link,0.07590790353853344,0.04909831848388143,-0.7521441876604359,0.6527683097938067,0.0025,0.0,0.0,0.0,0.0025,0.0,0.0,0.0,0.0025,-0.26,-0.45,-0.08,0.02,0.0,0.0,0.0,0.02,0.0,0.0,0.0,0.02,-2.0351280468749997,0.34474218749999996,8.41247546875,0.04,0.0,0.0,0.0,0.04,0.0,0.0,0.0,0.04
1614382883.2753527,799,1614382883,274344921,base_imu_link,0.07431837531419896,0.0498439164083666,-0.7530670866245966,0.651829982534154,0.0025,0.0,0.0,0.0,0.0025,0.0,0.0,0.0,0.0025,-0.2,-0.32,-0.09,0.02,0.0,0.0,0.0,0.02,0.0,0.0,0.0,0.02,-5.65453796875,-0.11989367187499998,10.394743046875,0.04,0.0,0.0,0.0,0.04,0.0,0.0,0.0,0.04
1614382883.2954352,800,1614382883,294337034,base_imu_link,0.07907084015404339,0.05854428159038465,-0.753008996455793,0.6506134186958024,0.0025,0.0,0.0,0.0,0.0025,0.0,0.0,0.0,0.0025,-0.24,-0.24,-0.02,0.02,0.0,0.0,0.0,0.02,0.0,0.0,0.0,0.02,-1.3598164062499998,-0.5125167187499999,8.2017996875,0.04,0.0,0.0,0.0,0.04,0.0,0.0,0.0,0.04
1614382883.3149872,801,1614382883,314312934,base_imu_link,0.0734710388139569,0.05810653735888365,-0.7540823006133477,0.6500657818047643,0.0025,0.0,0.0,0.0,0.0025,0.0,0.0,0.0,0.0025,-0.1,-0.39,-0.02,0.02,0.0,0.0,0.0,0.02,0.0,0.0,0.0,0.02,-4.333409296875,-0.32099328125,9.777271484375,0.04,0.0,0.0,0.0,0.04,0.0,0.0,0.0,0.04
1614382883.3330789,802,1614382883,332058906,base_imu_link,0.07906874396495009,0.06703912865132179,-0.7538198799661735,0.6488524312393847,0.0025,0.0,0.0,0.0,0.0025,0.0,0.0,0.0,0.0025,-0.14,-0.07,0.01,0.02,0.0,0.0,0.0,0.02,0.0,0.0,0.0,0.02,-4.175210937499999,-0.5745703124999999,9.427549687499999,0.04,0.0,0.0,0.0,0.04,0.0,0.0,0.0,0.04
1614382883.355002,803,1614382883,354055881,base_imu_link,0.08378873191364983,0.07525694010009326,-0.7536903416181264,0.6475080774188268,0.0025,0.0,0.0,0.0,0.0025,0.0,0.0,0.0,0.0025,-0.05,-0.14,0.01,0.02,0.0,0.0,0.0,0.02,0.0,0.0,0.0,0.02,-4.644443359375,-0.7710733593749999,9.380051875,0.04,0.0,0.0,0.0,0.04,0.0,0.0,0.0,0.04
1614382883.375863,804,1614382883,374706029,base_imu_link,0.08958284624716116,0.08500800294701782,-0.7528980951189895,0.6464464490268425,0.0025,0.0,0.0,0.0,0.0025,0.0,0.0,0.0,0.0025,-0.05,-0.05,0.06,0.02,0.0,0.0,0.0,0.02,0.0,0.0,0.0,0.02,-4.405039062499999,0.009576171875,8.6951640625,0.04,0.0,0.0,0.0,0.04,0.0,0.0,0.0,0.04
1614382883.3950562,805,1614382883,394392013,base_imu_link,0.09966703930970189,0.0930494982157593,-0.7512749187058355,0.6457509339370512,0.0025,0.0,0.0,0.0,0.0025,0.0,0.0,0.0,0.0025,-0.04,0.15,0.13,0.02,0.0,0.0,0.0,0.02,0.0,0.0,0.0,0.02,-4.50080078125,-0.6511796875,9.322594843749998,0.04,0.0,0.0,0.0,0.04,0.0,0.0,0.0,0.04
1614382883.4128907,806,1614382883,412280082,base_imu_link,0.1067894292021856,0.10251519148383026,-0.7494890674324672,0.6452540516144906,0.0025,0.0,0.0,0.0,0.0025,0.0,0.0,0.0,0.0025,-0.04,0.28,0.21,0.02,0.0,0.0,0.0,0.02,0.0,0.0,0.0,0.02,-2.925328984375,-0.14364257812499998,9.202701171874999,0.04,0.0,0.0,0.0,0.04,0.0,0.0,0.0,0.04
1614382883.4332275,807,1614382883,432307004,base_imu_link,0.10990227049597717,0.10854464565005795,-0.7482281310088977,0.6452086598980706,0.0025,0.0,0.0,0.0,0.0025,0.0,0.0,0.0,0.0025,-0.29,0.54,0.14,0.02,0.0,0.0,0.0,0.02,0.0,0.0,0.0,0.02,-1.446001953125,-0.22025195312499998,9.509138671874998,0.04,0.0,0.0,0.0,0.04,0.0,0.0,0.0,0.04
1614382883.4550164,808,1614382883,454320907,base_imu_link,0.10570989191391085,0.1106314062817201,-0.7479782226351283,0.6458441678603849,0.0025,0.0,0.0,0.0,0.0025,0.0,0.0,0.0,0.0025,-0.47,0.54,0.14,0.02,0.0,0.0,0.0,0.02,0.0,0.0,0.0,0.02,-3.0835273437499997,-0.995921875,10.945564453125,0.04,0.0,0.0,0.0,0.04,0.0,0.0,0.0,0.04
1614382883.475283,809,1614382883,474327087,base_imu_link,0.10514916191352722,0.11590054203965547,-0.7471963523899104,0.6459166579977711,0.0025,0.0,0.0,0.0,0.0025,0.0,0.0,0.0,0.0025,-0.24,0.38,0.17,0.02,0.0,0.0,0.0,0.02,0.0,0.0,0.0,0.02,-1.9248105468749999,-0.7611141406249999,10.51463671875,0.04,0.0,0.0,0.0,0.04,0.0,0.0,0.0,0.04
1614382883.4950442,810,1614382883,494354009,base_imu_link,0.1018876114136262,0.11599342781137403,-0.7474770524591672,0.6460978992319576,0.0025,0.0,0.0,0.0,0.0025,0.0,0.0,0.0,0.0025,-0.1,0.3,0.13,0.02,0.0,0.0,0.0,0.02,0.0,0.0,0.0,0.02,-1.69996203125,-0.63662390625,10.428451171874999,0.04,0.0,0.0,0.0,0.04,0.0,0.0,0.0,0.04
1614382883.5134068,811,1614382883,512356996,base_imu_link,0.0983165555122704,0.1136739652095661,-0.7481827748534645,0.646246562821271,0.0025,0.0,0.0,0.0,0.0025,0.0,0.0,0.0,0.0025,0.0,0.2,0.09,0.02,0.0,0.0,0.0,0.02,0.0,0.0,0.0,0.02,-1.3169151562499999,-0.407178828125,10.17449109375,0.04,0.0,0.0,0.0,0.04,0.0,0.0,0.0,0.04
1614382883.5363045,812,1614382883,535203933,base_imu_link,0.09447982822392008,0.10941517575308024,-0.7492622699196998,0.6463032819415976,0.0025,0.0,0.0,0.0,0.0025,0.0,0.0,0.0,0.0025,0.04,0.2,0.05,0.02,0.0,0.0,0.0,0.02,0.0,0.0,0.0,0.02,-1.16369640625,-0.19152343749999998,9.940066406249999,0.04,0.0,0.0,0.0,0.04,0.0,0.0,0.0,0.04
1614382883.5534317,813,1614382883,552412986,base_imu_link,0.09016602873849058,0.10358798152811247,-0.7506788829140543,0.646235895081176,0.0025,0.0,0.0,0.0,0.0025,0.0,0.0,0.0,0.0025,0.03,0.1,0.01,0.02,0.0,0.0,0.0,0.02,0.0,0.0,0.0,0.02,-0.6894843749999999,-0.42135156249999994,9.848901249999999,0.04,0.0,0.0,0.0,0.04,0.0,0.0,0.0,0.04
1614382883.5760338,814,1614382883,575030088,base_imu_link,0.08314486217179766,0.09719453563166275,-0.7525106049849561,0.6460402027141603,0.0025,0.0,0.0,0.0,0.0025,0.0,0.0,0.0,0.0025,0.03,0.02,-0.0,0.02,0.0,0.0,0.0,0.02,0.0,0.0,0.0,0.02,-1.288186640625,-0.368874140625,9.858860468749999,0.04,0.0,0.0,0.0,0.04,0.0,0.0,0.0,0.04
1614382883.596043,815,1614382883,595082044,base_imu_link,0.07892515855037724,0.09310228103369192,-0.7538451208738217,0.6456162314787743,0.0025,0.0,0.0,0.0,0.0025,0.0,0.0,0.0,0.0025,0.02,-0.01,-0.0,0.02,0.0,0.0,0.0,0.02,0.0,0.0,0.0,0.02,-0.8572589062499999,-0.3064375,9.834728515624999,0.04,0.0,0.0,0.0,0.04,0.0,0.0,0.0,0.04
1614382883.6159048,816,1614382883,614814043,base_imu_link,0.0734433920005966,0.08766703124948556,-0.7551303705056116,0.6455220239026754,0.0025,0.0,0.0,0.0,0.0025,0.0,0.0,0.0,0.0025,0.02,-0.03,-0.01,0.02,0.0,0.0,0.0,0.02,0.0,0.0,0.0,0.02,-0.7710733593749999,-0.28268859375,9.853880859375,0.04,0.0,0.0,0.0,0.04,0.0,0.0,0.0,0.04
1614382883.6355927,817,1614382883,634928941,base_imu_link,0.06785786081018559,0.08232899602609445,-0.7560759920558764,0.6457293096773005,0.0025,0.0,0.0,0.0,0.0025,0.0,0.0,0.0,0.0025,0.01,-0.07,-0.03,0.02,0.0,0.0,0.0,0.02,0.0,0.0,0.0,0.02,-1.22575,-0.36389453125,9.848901249999999,0.04,0.0,0.0,0.0,0.04,0.0,0.0,0.0,0.04
1614382883.6561677,818,1614382883,655303001,base_imu_link,0.06402676667694848,0.07895734478117783,-0.7571601737571759,0.6452710919683331,0.0025,0.0,0.0,0.0,0.0025,0.0,0.0,0.0,0.0025,0.0,-0.11,-0.04,0.02,0.0,0.0,0.0,0.02,0.0,0.0,0.0,0.02,-1.39812109375,-0.38304687499999995,9.738966796875,0.04,0.0,0.0,0.0,0.04,0.0,0.0,0.0,0.04
1614382883.6767957,819,1614382883,675918102,base_imu_link,0.06073546580043343,0.07641642212423441,-0.7580101497451108,0.6448971596364259,0.0025,0.0,0.0,0.0,0.0025,0.0,0.0,0.0,0.0025,-0.0,-0.16,-0.05,0.02,0.0,0.0,0.0,0.02,0.0,0.0,0.0,0.02,-1.51303515625,-0.368874140625,9.848901249999999,0.04,0.0,0.0,0.0,0.04,0.0,0.0,0.0,0.04
1614382883.6962657,820,1614382883,695199012,base_imu_link,0.05826915623566645,0.07437335165552982,-0.7586691398239742,0.6445885868318313,0.0025,0.0,0.0,0.0,0.0025,0.0,0.0,0.0,0.0025,0.01,-0.15,-0.05,0.02,0.0,0.0,0.0,0.02,0.0,0.0,0.0,0.02,-1.560916015625,-0.3064375,9.729390624999999,0.04,0.0,0.0,0.0,0.04,0.0,0.0,0.0,0.04
1614382883.7159724,821,1614382883,715157985,base_imu_link,0.056629050121398974,0.07256653973252625,-0.7593385325145349,0.6441523430309545,0.0025,0.0,0.0,0.0,0.0025,0.0,0.0,0.0,0.0025,0.0,-0.15,-0.05,0.02,0.0,0.0,0.0,0.02,0.0,0.0,0.0,0.02,-1.6854062499999998,-0.32099328125,9.66733703125,0.04,0.0,0.0,0.0,0.04,0.0,0.0,0.0,0.04
1614382883.7360752,822,1614382883,735241889,base_imu_link,0.05590253250880702,0.071686626231519,-0.7596672573706053,0.6439266981246132,0.0025,0.0,0.0,0.0,0.0025,0.0,0.0,0.0,0.0025,0.01,-0.11,-0.04,0.02,0.0,0.0,0.0,0.02,0.0,0.0,0.0,0.02,-1.7428632812499998,-0.330569453125,9.691085937499999,0.04,0.0,0.0,0.0,0.04,0.0,0.0,0.0,0.04
1614382883.7556872,823,1614382883,755017995,base_imu_link,0.05567628848522674,0.07127903109594914,-0.7596583549954252,0.6440020452701816,0.0025,0.0,0.0,0.0,0.0025,0.0,0.0,0.0,0.0025,0.01,-0.08,-0.02,0.02,0.0,0.0,0.0,0.02,0.0,0.0,0.0,0.02,-1.7478428906249999,-0.3064375,9.648184687499999,0.04,0.0,0.0,0.0,0.04,0.0,0.0,0.0,0.04
1614382883.776025,824,1614382883,775234937,base_imu_link,0.05583247923939294,0.07108989625188714,-0.7595645811859147,0.6441200260205738,0.0025,0.0,0.0,0.0,0.0025,0.0,0.0,0.0,0.0025,0.01,-0.04,-0.01,0.02,0.0,0.0,0.0,0.02,0.0,0.0,0.0,0.02,-1.7045585937499999,-0.30184093749999996,9.638225468749999,0.04,0.0,0.0,0.0,0.04,0.0,0.0,0.0,0.04
1614382883.796045,825,1614382883,795226097,base_imu_link,0.0560072937496697,0.07088615298711329,-0.7596393723534703,0.644039098449738,0.0025,0.0,0.0,0.0,0.0025,0.0,0.0,0.0,0.0025,0.0,-0.02,-0.0,0.02,0.0,0.0,0.0,0.02,0.0,0.0,0.0,0.02,-1.6808096875,-0.335166015625,9.67653015625,0.04,0.0,0.0,0.0,0.04,0.0,0.0,0.0,0.04
1614382883.8165145,826,1614382883,815541982,base_imu_link,0.05600937521729889,0.07075409660382154,-0.7597648563789396,0.6439054050969242,0.0025,0.0,0.0,0.0,0.0025,0.0,0.0,0.0,0.0025,0.01,-0.01,0.0,0.02,0.0,0.0,0.0,0.02,0.0,0.0,0.0,0.02,-1.608796875,-0.35929796875,9.6956825,0.04,0.0,0.0,0.0,0.04,0.0,0.0,0.0,0.04
1614382883.836338,827,1614382883,835508108,base_imu_link,0.05566260836075631,0.07061591329444691,-0.759561451385445,0.6441905528562994,0.0025,0.0,0.0,0.0,0.0025,0.0,0.0,0.0,0.0025,0.01,-0.01,0.0,0.02,0.0,0.0,0.0,0.02,0.0,0.0,0.0,0.02,-1.565895625,-0.35431835937499995,9.7247940625,0.04,0.0,0.0,0.0,0.04,0.0,0.0,0.0,0.04
1614382883.856538,828,1614382883,855318069,base_imu_link,0.05508888937393345,0.07009262935778075,-0.7598480112927147,0.643959033876974,0.0025,0.0,0.0,0.0,0.0025,0.0,0.0,0.0,0.0025,0.01,-0.03,-0.0,0.02,0.0,0.0,0.0,0.02,0.0,0.0,0.0,0.02,-1.5417636718749999,-0.368874140625,9.74854296875,0.04,0.0,0.0,0.0,0.04,0.0,0.0,0.0,0.04
1614382883.8767703,829,1614382883,875642061,base_imu_link,0.05421055734640742,0.06950600592132239,-0.759698695362625,0.644273251716523,0.0025,0.0,0.0,0.0,0.0025,0.0,0.0,0.0,0.0025,0.01,-0.05,-0.01,0.02,0.0,0.0,0.0,0.02,0.0,0.0,0.0,0.02,-1.5417636718749999,-0.37347070312499997,9.75313953125,0.04,0.0,0.0,0.0,0.04,0.0,0.0,0.0,0.04
1614382883.8960106,830,1614382883,895203113,base_imu_link,0.0533081714915387,0.06883012014258563,-0.7599488469472222,0.6441260772837669,0.0025,0.0,0.0,0.0,0.0025,0.0,0.0,0.0,0.0025,0.01,-0.06,-0.02,0.02,0.0,0.0,0.0,0.02,0.0,0.0,0.0,0.02,-1.565895625,-0.36389453125,9.729390624999999,0.04,0.0,0.0,0.0,0.04,0.0,0.0,0.0,0.04
1614382883.9163024,831,1614382883,915294885,base_imu_link,0.05259458078940894,0.06820028251968849,-0.7601908005111038,0.6439662090157434,0.0025,0.0,0.0,0.0,0.0025,0.0,0.0,0.0,0.0025,0.01,-0.07,-0.02,0.02,0.0,0.0,0.0,0.02,0.0,0.0,0.0,0.02,-1.5992207031249999,-0.349721796875,9.71483484375,0.04,0.0,0.0,0.0,0.04,0.0,0.0,0.0,0.04
1614382883.9360745,832,1614382883,935290098,base_imu_link,0.052117150851307886,0.06781742381643208,-0.7601247024927048,0.644123463533523,0.0025,0.0,0.0,0.0,0.0025,0.0,0.0,0.0,0.0025,0.01,-0.07,-0.02,0.02,0.0,0.0,0.0,0.02,0.0,0.0,0.0,0.02,-1.6279492187499998,-0.335166015625,9.681509765625,0.04,0.0,0.0,0.0,0.04,0.0,0.0,0.0,0.04
1614382883.9560528,833,1614382883,955255985,base_imu_link,0.051939998280988095,0.06747885339366466,-0.7599379323875671,0.6443936528565102,0.0025,0.0,0.0,0.0,0.0025,0.0,0.0,0.0,0.0025,0.01,-0.06,-0.02,0.02,0.0,0.0,0.0,0.02,0.0,0.0,0.0,0.02,-1.6375253906249998,-0.335166015625,9.67653015625,0.04,0.0,0.0,0.0,0.04,0.0,0.0,0.0,0.04
1614382883.976261,834,1614382883,975589990,base_imu_link,0.051929745624716174,0.06735650167424032,-0.7599503712094753,0.6443926105257114,0.0025,0.0,0.0,0.0,0.0025,0.0,0.0,0.0,0.0025,0.01,-0.05,-0.01,0.02,0.0,0.0,0.0,0.02,0.0,0.0,0.0,0.02,-1.6375253906249998,-0.330569453125,9.686489374999999,0.04,0.0,0.0,0.0,0.04,0.0,0.0,0.0,0.04
1614382883.9962978,835,1614382883,995362043,base_imu_link,0.0519683609804504,0.06730379082860188,-0.75978751983417,0.6445870103417739,0.0025,0.0,0.0,0.0,0.0025,0.0,0.0,0.0,0.0025,0.01,-0.04,-0.01,0.02,0.0,0.0,0.0,0.02,0.0,0.0,0.0,0.02,-1.618373046875,-0.34474218749999996,9.691085937499999,0.04,0.0,0.0,0.0,0.04,0.0,0.0,0.0,0.04
1614382884.0163689,836,1614382884,15434980,base_imu_link,0.05186667120264388,0.06727490451908227,-0.759456450381632,0.6449882445549198,0.0025,0.0,0.0,0.0,0.0025,0.0,0.0,0.0,0.0025,0.01,-0.04,-0.01,0.02,0.0,0.0,0.0,0.02,0.0,0.0,0.0,0.02,-1.594624140625,-0.34474218749999996,9.71023828125,0.04,0.0,0.0,0.0,0.04,0.0,0.0,0.0,0.04
1614382884.0361729,837,1614382884,35444974,base_imu_link,0.051643913631927926,0.06712466970476452,-0.7592508413451792,0.6452637792549973,0.0025,0.0,0.0,0.0,0.0025,0.0,0.0,0.0,0.0025,0.01,-0.04,-0.01,0.02,0.0,0.0,0.0,0.02,0.0,0.0,0.0,0.02,-1.5800683593749998,-0.35929796875,9.719814453124998,0.04,0.0,0.0,0.0,0.04,0.0,0.0,0.0,0.04
1614382884.0564015,838,1614382884,55571079,base_imu_link,0.051389888916472955,0.06689124687604871,-0.7593894784955367,0.6451451467373811,0.0025,0.0,0.0,0.0,0.0025,0.0,0.0,0.0,0.0025,0.01,-0.05,-0.01,0.02,0.0,0.0,0.0,0.02,0.0,0.0,0.0,0.02,-1.5704921875,-0.35929796875,9.7247940625,0.04,0.0,0.0,0.0,0.04,0.0,0.0,0.0,0.04
