Time,header.seq,header.stamp.secs,header.stamp.nsecs,header.frame_id,orientation.x,orientation.y,orientation.z,orientation.w,orientation_covariance_0,orientation_covariance_1,orientation_covariance_2,orientation_covariance_3,orientation_covariance_4,orientation_covariance_5,orientation_covariance_6,orientation_covariance_7,orientation_covariance_8,angular_velocity.x,angular_velocity.y,angular_velocity.z,angular_velocity_covariance_0,angular_velocity_covariance_1,angular_velocity_covariance_2,angular_velocity_covariance_3,angular_velocity_covariance_4,angular_velocity_covariance_5,angular_velocity_covariance_6,angular_velocity_covariance_7,angular_velocity_covariance_8,linear_acceleration.x,linear_acceleration.y,linear_acceleration.z,linear_acceleration_covariance_0,linear_acceleration_covariance_1,linear_acceleration_covariance_2,linear_acceleration_covariance_3,linear_acceleration_covariance_4,linear_acceleration_covariance_5,linear_acceleration_covariance_6,linear_acceleration_covariance_7,linear_acceleration_covariance_8
1614726809.1405182,3398,1614726809,140014648,base_imu_link,-0.009553963392332013,0.03465113357777033,0.7073046950586849,0.7059943973384023,0.0025,0.0,0.0,0.0,0.0025,0.0,0.0,0.0,0.0025,0.02,-0.03,0.03,0.02,0.0,0.0,0.0,0.02,0.0,0.0,0.0,0.02,-0.59372265625,0.253960078125,9.925510625,0.04,0.0,0.0,0.0,0.04,0.0,0.0,0.0,0.04
1614726809.1605382,3399,1614726809,160124778,base_imu_link,-0.009491439370406857,0.03409652248919291,0.707331704463761,0.7059951838314569,0.0025,0.0,0.0,0.0,0.0025,0.0,0.0,0.0,0.0025,0.02,-0.04,0.02,0.02,0.0,0.0,0.0,0.02,0.0,0.0,0.0,0.02,-0.622451171875,0.34474218749999996,9.9638153125,0.04,0.0,0.0,0.0,0.04,0.0,0.0,0.0,0.04
1614726809.1805925,3400,1614726809,180161714,base_imu_link,-0.00913539805075263,0.03372327538537338,0.7076574583378513,0.7056912971395841,0.0025,0.0,0.0,0.0,0.0025,0.0,0.0,0.0,0.0025,0.01,-0.06,0.04,0.02,0.0,0.0,0.0,0.02,0.0,0.0,0.0,0.02,-0.622451171875,0.35431835937499995,9.935469843749999,0.04,0.0,0.0,0.0,0.04,0.0,0.0,0.0,0.04
1614726809.200725,3401,1614726809,200287818,base_imu_link,-0.008958449355979843,0.033413101865208364,0.7078568436722539,0.7055083271480471,0.0025,0.0,0.0,0.0,0.0025,0.0,0.0,0.0,0.0025,-0.0,-0.06,0.04,0.02,0.0,0.0,0.0,0.02,0.0,0.0,0.0,0.02,-0.56997375,0.28728515624999995,9.8014034375,0.04,0.0,0.0,0.0,0.04,0.0,0.0,0.0,0.04
1614726809.220787,3402,1614726809,220368146,base_imu_link,-0.008833701091725247,0.03279698293483688,0.7078857534327097,0.7055098041291836,0.0025,0.0,0.0,0.0,0.0025,0.0,0.0,0.0,0.0025,-0.0,-0.06,0.03,0.02,0.0,0.0,0.0,0.02,0.0,0.0,0.0,0.02,-0.56997375,0.349721796875,9.758119140624999,0.04,0.0,0.0,0.0,0.04,0.0,0.0,0.0,0.04
1614726809.2410443,3403,1614726809,240588188,base_imu_link,-0.008530189105360053,0.03248796421748156,0.7080231376692045,0.7053899663164235,0.0025,0.0,0.0,0.0,0.0025,0.0,0.0,0.0,0.0025,-0.01,-0.05,0.03,0.02,0.0,0.0,0.0,0.02,0.0,0.0,0.0,0.02,-0.564994140625,0.340145625,9.75313953125,0.04,0.0,0.0,0.0,0.04,0.0,0.0,0.0,0.04
1614726809.260937,3404,1614726809,260525941,base_imu_link,-0.008349972611747558,0.03217873396490607,0.708160363191458,0.7052685354121089,0.0025,0.0,0.0,0.0,0.0025,0.0,0.0,0.0,0.0025,-0.0,-0.04,0.03,0.02,0.0,0.0,0.0,0.02,0.0,0.0,0.0,0.02,-0.564994140625,0.32099328125,9.820555781249999,0.04,0.0,0.0,0.0,0.04,0.0,0.0,0.0,0.04
1614726809.2810533,3405,1614726809,280653238,base_imu_link,-0.008298614737181218,0.031867779750960626,0.7084204897707659,0.7050219764518947,0.0025,0.0,0.0,0.0,0.0025,0.0,0.0,0.0,0.0025,-0.01,-0.04,0.03,0.02,0.0,0.0,0.0,0.02,0.0,0.0,0.0,0.02,-0.560397578125,0.30184093749999996,9.810596562499999,0.04,0.0,0.0,0.0,0.04,0.0,0.0,0.0,0.04
1614726809.301331,3406,1614726809,300895214,base_imu_link,-0.008361817618397471,0.03143536093194761,0.7085013592681788,0.7049593761376169,0.0025,0.0,0.0,0.0,0.0025,0.0,0.0,0.0,0.0025,-0.01,-0.04,0.02,0.02,0.0,0.0,0.0,0.02,0.0,0.0,0.0,0.02,-0.5745703124999999,0.392623046875,9.825152343749998,0.04,0.0,0.0,0.0,0.04,0.0,0.0,0.0,0.04
1614726809.3212667,3407,1614726809,320872306,base_imu_link,-0.008117751537605472,0.03143538494446562,0.7085628845653391,0.7049003882108541,0.0025,0.0,0.0,0.0,0.0025,0.0,0.0,0.0,0.0025,-0.02,-0.04,0.02,0.02,0.0,0.0,0.0,0.02,0.0,0.0,0.0,0.02,-0.579549921875,0.392623046875,9.815576171875,0.04,0.0,0.0,0.0,0.04,0.0,0.0,0.0,0.04
1614726809.3410842,3408,1614726809,340724229,base_imu_link,-0.007870941258492076,0.03143613878590949,0.708562892986179,0.7049031452227992,0.0025,0.0,0.0,0.0,0.0025,0.0,0.0,0.0,0.0025,-0.01,-0.04,0.02,0.02,0.0,0.0,0.0,0.02,0.0,0.0,0.0,0.02,-0.5745703124999999,0.330569453125,9.767695312499999,0.04,0.0,0.0,0.0,0.04,0.0,0.0,0.0,0.04
1614726809.360991,3409,1614726809,360574722,base_imu_link,-0.007873684549147915,0.03143545179700946,0.7086244046920525,0.7048413087616051,0.0025,0.0,0.0,0.0,0.0025,0.0,0.0,0.0,0.0025,0.0,-0.03,0.01,0.02,0.0,0.0,0.0,0.02,0.0,0.0,0.0,0.02,-0.55082140625,0.27770898437499997,9.729390624999999,0.04,0.0,0.0,0.0,0.04,0.0,0.0,0.0,0.04
1614726809.3810759,3410,1614726809,380535364,base_imu_link,-0.008109521494974832,0.031437509089550536,0.7083783177952871,0.7050858653815761,0.0025,0.0,0.0,0.0,0.0025,0.0,0.0,0.0,0.0025,0.02,-0.01,-0.01,0.02,0.0,0.0,0.0,0.02,0.0,0.0,0.0,0.02,-0.545841796875,0.32099328125,9.738966796875,0.04,0.0,0.0,0.0,0.04,0.0,0.0,0.0,0.04
1614726809.4015298,3411,1614726809,401058912,base_imu_link,-0.00816070164492565,0.03162512234296463,0.7081238911284687,0.7053324105686141,0.0025,0.0,0.0,0.0,0.0025,0.0,0.0,0.0,0.0025,0.02,0.0,-0.02,0.02,0.0,0.0,0.0,0.02,0.0,0.0,0.0,0.02,-0.5554179687499999,0.35929796875,9.796423828124999,0.04,0.0,0.0,0.0,0.04,0.0,0.0,0.0,0.04
1614726809.4212413,3412,1614726809,420786380,base_imu_link,-0.008024238947167861,0.031998791999896165,0.7077994011539147,0.7056427542503543,0.0025,0.0,0.0,0.0,0.0025,0.0,0.0,0.0,0.0025,0.02,0.0,-0.02,0.02,0.0,0.0,0.0,0.02,0.0,0.0,0.0,0.02,-0.55082140625,0.368874140625,9.82974890625,0.04,0.0,0.0,0.0,0.04,0.0,0.0,0.0,0.04
1614726809.4412682,3413,1614726809,440882205,base_imu_link,-0.007957516089570184,0.032308518651605965,0.7076621974233925,0.7057669954723855,0.0025,0.0,0.0,0.0,0.0025,0.0,0.0,0.0,0.0025,0.02,0.01,-0.01,0.02,0.0,0.0,0.0,0.02,0.0,0.0,0.0,0.02,-0.545841796875,0.3784503125,9.82974890625,0.04,0.0,0.0,0.0,0.04,0.0,0.0,0.0,0.04
1614726809.4612799,3414,1614726809,460882663,base_imu_link,-0.0077731983032718645,0.03274034652597167,0.7076423243842116,0.7057690754330398,0.0025,0.0,0.0,0.0,0.0025,0.0,0.0,0.0,0.0025,0.03,0.01,-0.01,0.02,0.0,0.0,0.0,0.02,0.0,0.0,0.0,0.02,-0.5412452343749999,0.3784503125,9.848901249999999,0.04,0.0,0.0,0.0,0.04,0.0,0.0,0.0,0.04
1614726809.4814901,3415,1614726809,481034994,base_imu_link,-0.007650244165496527,0.032987132142087996,0.7076308503276649,0.7057704318982162,0.0025,0.0,0.0,0.0,0.0025,0.0,0.0,0.0,0.0025,0.02,0.01,-0.0,0.02,0.0,0.0,0.0,0.02,0.0,0.0,0.0,0.02,-0.536265625,0.349721796875,9.873033203124999,0.04,0.0,0.0,0.0,0.04,0.0,0.0,0.0,0.04
1614726809.5012646,3416,1614726809,500817298,base_imu_link,-0.007577300234815679,0.033174809176585496,0.707375783980929,0.7060180711530084,0.0025,0.0,0.0,0.0,0.0025,0.0,0.0,0.0,0.0025,0.03,0.01,-0.01,0.02,0.0,0.0,0.0,0.02,0.0,0.0,0.0,0.02,-0.5266894531249999,0.32558984375,9.930490234374998,0.04,0.0,0.0,0.0,0.04,0.0,0.0,0.0,0.04
1614726809.5216408,3417,1614726809,521210670,base_imu_link,-0.007571348652563051,0.03305285333705502,0.7072583310975036,0.7061415131962109,0.0025,0.0,0.0,0.0,0.0025,0.0,0.0,0.0,0.0025,0.02,0.0,-0.01,0.02,0.0,0.0,0.0,0.02,0.0,0.0,0.0,0.02,-0.55082140625,0.335166015625,9.940066406249999,0.04,0.0,0.0,0.0,0.04,0.0,0.0,0.0,0.04
1614726809.5415006,3418,1614726809,541024446,base_imu_link,-0.007559810569166211,0.033055494222562466,0.7070117981260623,0.7063883499013928,0.0025,0.0,0.0,0.0,0.0025,0.0,0.0,0.0,0.0025,0.02,-0.0,-0.01,0.02,0.0,0.0,0.0,0.02,0.0,0.0,0.0,0.02,-0.560397578125,0.36389453125,9.8872059375,0.04,0.0,0.0,0.0,0.04,0.0,0.0,0.0,0.04
1614726809.5614822,3419,1614726809,561036348,base_imu_link,-0.00748668129628129,0.033243085251715467,0.7067564993990806,0.7066357600937505,0.0025,0.0,0.0,0.0,0.0025,0.0,0.0,0.0,0.0025,0.02,-0.0,-0.01,0.02,0.0,0.0,0.0,0.02,0.0,0.0,0.0,0.02,-0.545841796875,0.35431835937499995,9.86805359375,0.04,0.0,0.0,0.0,0.04,0.0,0.0,0.0,0.04
1614726809.581616,3420,1614726809,581166028,base_imu_link,-0.0074162962442609875,0.03330670398787586,0.7065685745038206,0.7068214141797914,0.0025,0.0,0.0,0.0,0.0025,0.0,0.0,0.0,0.0025,0.02,-0.0,-0.01,0.02,0.0,0.0,0.0,0.02,0.0,0.0,0.0,0.02,-0.55082140625,0.330569453125,9.892185546875,0.04,0.0,0.0,0.0,0.04,0.0,0.0,0.0,0.04
1614726809.601537,3421,1614726809,601072788,base_imu_link,-0.007419148984555235,0.0331827797615199,0.7066360564273038,0.7067597492164588,0.0025,0.0,0.0,0.0,0.0025,0.0,0.0,0.0,0.0025,0.02,-0.01,-0.01,0.02,0.0,0.0,0.0,0.02,0.0,0.0,0.0,0.02,-0.55082140625,0.311417109375,9.8872059375,0.04,0.0,0.0,0.0,0.04,0.0,0.0,0.0,0.04
1614726809.6215093,3422,1614726809,621086120,base_imu_link,-0.007410439982919891,0.03306144302664726,0.7064567842376809,0.7069447208720142,0.0025,0.0,0.0,0.0,0.0025,0.0,0.0,0.0,0.0025,0.02,-0.01,-0.0,0.02,0.0,0.0,0.0,0.02,0.0,0.0,0.0,0.02,-0.5316690625,0.30184093749999996,9.806,0.04,0.0,0.0,0.0,0.04,0.0,0.0,0.0,0.04
1614726809.6417997,3423,1614726809,641393899,base_imu_link,-0.007398920427192033,0.032940748810405734,0.7062157307205281,0.7071912787409023,0.0025,0.0,0.0,0.0,0.0025,0.0,0.0,0.0,0.0025,0.03,-0.0,-0.01,0.02,0.0,0.0,0.0,0.02,0.0,0.0,0.0,0.02,-0.5316690625,0.311417109375,9.767695312499999,0.04,0.0,0.0,0.0,0.04,0.0,0.0,0.0,0.04
1614726809.6619134,3424,1614726809,661472797,base_imu_link,-0.007390242515280011,0.033065963638007706,0.7060248044998207,0.707376138836507,0.0025,0.0,0.0,0.0,0.0025,0.0,0.0,0.0,0.0025,0.04,0.01,-0.01,0.02,0.0,0.0,0.0,0.02,0.0,0.0,0.0,0.02,-0.5412452343749999,0.3064375,9.777271484375,0.04,0.0,0.0,0.0,0.04,0.0,0.0,0.0,0.04
1614726809.6820724,3425,1614726809,681533813,base_imu_link,-0.007504906053492624,0.03319126131799828,0.7058338092838671,0.7075596442909063,0.0025,0.0,0.0,0.0,0.0025,0.0,0.0,0.0,0.0025,0.03,0.01,-0.02,0.02,0.0,0.0,0.0,0.02,0.0,0.0,0.0,0.02,-0.579549921875,0.35431835937499995,9.8872059375,0.04,0.0,0.0,0.0,0.04,0.0,0.0,0.0,0.04
1614726809.701998,3426,1614726809,701531648,base_imu_link,-0.00755482916591127,0.03337885851198277,0.7055780697901706,0.7078053148937836,0.0025,0.0,0.0,0.0,0.0025,0.0,0.0,0.0,0.0025,0.03,0.0,-0.02,0.02,0.0,0.0,0.0,0.02,0.0,0.0,0.0,0.02,-0.58912609375,0.37347070312499997,9.930490234374998,0.04,0.0,0.0,0.0,0.04,0.0,0.0,0.0,0.04
1614726809.7219195,3427,1614726809,721555948,base_imu_link,-0.00747828673554848,0.03356697271709409,0.7052604026409611,0.7081137606605455,0.0025,0.0,0.0,0.0,0.0025,0.0,0.0,0.0,0.0025,0.02,-0.01,-0.01,0.02,0.0,0.0,0.0,0.02,0.0,0.0,0.0,0.02,-0.612875,0.430927734375,9.90635828125,0.04,0.0,0.0,0.0,0.04,0.0,0.0,0.0,0.04
1614726809.742012,3428,1614726809,741555452,base_imu_link,-0.007354331700047,0.03393660773765715,0.705242734110977,0.7081150375780618,0.0025,0.0,0.0,0.0,0.0025,0.0,0.0,0.0,0.0025,0.01,-0.02,-0.01,0.02,0.0,0.0,0.0,0.02,0.0,0.0,0.0,0.02,-0.6082784375,0.388026484375,9.858860468749999,0.04,0.0,0.0,0.0,0.04,0.0,0.0,0.0,0.04
1614726809.7619712,3429,1614726809,761525392,base_imu_link,-0.0072863986800501355,0.03412269400249897,0.7051102270053725,0.7082387435891367,0.0025,0.0,0.0,0.0,0.0025,0.0,0.0,0.0,0.0025,0.02,-0.01,-0.0,0.02,0.0,0.0,0.0,0.02,0.0,0.0,0.0,0.02,-0.6032988281249999,0.368874140625,9.820555781249999,0.04,0.0,0.0,0.0,0.04,0.0,0.0,0.0,0.04
1614726809.7820597,3430,1614726809,781613349,base_imu_link,-0.00740661220024766,0.034246814144036304,0.7050424569213231,0.7082989706014284,0.0025,0.0,0.0,0.0,0.0025,0.0,0.0,0.0,0.0025,0.01,-0.01,-0.01,0.02,0.0,0.0,0.0,0.02,0.0,0.0,0.0,0.02,-0.6082784375,0.3784503125,9.777271484375,0.04,0.0,0.0,0.0,0.04,0.0,0.0,0.0,0.04
1614726809.802401,3431,1614726809,801974534,base_imu_link,-0.007579121068212362,0.03455795293836507,0.7047801706071611,0.7085430233454311,0.0025,0.0,0.0,0.0,0.0025,0.0,0.0,0.0,0.0025,0.01,0.0,-0.01,0.02,0.0,0.0,0.0,0.02,0.0,0.0,0.0,0.02,-0.6320273437499999,0.392623046875,9.796423828124999,0.04,0.0,0.0,0.0,0.04,0.0,0.0,0.0,0.04
1614726809.8222985,3432,1614726809,821887731,base_imu_link,-0.007819341366234293,0.03480636462472008,0.7046444015142208,0.7086632785017682,0.0025,0.0,0.0,0.0,0.0025,0.0,0.0,0.0,0.0025,-0.0,-0.0,-0.01,0.02,0.0,0.0,0.0,0.02,0.0,0.0,0.0,0.02,-0.6270477343749999,0.3784503125,9.853880859375,0.04,0.0,0.0,0.0,0.04,0.0,0.0,0.0,0.04
1614726809.842542,3433,1614726809,842117786,base_imu_link,-0.008047925708369812,0.034811143276201786,0.7042732575344592,0.7090293321981805,0.0025,0.0,0.0,0.0,0.0025,0.0,0.0,0.0,0.0025,-0.01,-0.01,-0.01,0.02,0.0,0.0,0.0,0.02,0.0,0.0,0.0,0.02,-0.6320273437499999,0.41177539062499996,9.863457031249999,0.04,0.0,0.0,0.0,0.04,0.0,0.0,0.0,0.04
1614726809.8625517,3434,1614726809,862123250,base_imu_link,-0.008047581492374263,0.03493440622945202,0.7042671750568766,0.7090293152126546,0.0025,0.0,0.0,0.0,0.0025,0.0,0.0,0.0,0.0025,-0.0,-0.02,-0.0,0.02,0.0,0.0,0.0,0.02,0.0,0.0,0.0,0.02,-0.6320273437499999,0.430927734375,9.825152343749998,0.04,0.0,0.0,0.0,0.04,0.0,0.0,0.0,0.04
1614726809.8825054,3435,1614726809,882075548,base_imu_link,-0.007975791852718083,0.03524447591082776,0.7040662250179653,0.7092143289944478,0.0025,0.0,0.0,0.0,0.0025,0.0,0.0,0.0,0.0025,0.0,-0.01,0.0,0.02,0.0,0.0,0.0,0.02,0.0,0.0,0.0,0.02,-0.612875,0.36389453125,9.810596562499999,0.04,0.0,0.0,0.0,0.04,0.0,0.0,0.0,0.04
1614726809.9023633,3436,1614726809,901917457,base_imu_link,-0.008095733548453967,0.03536881857110231,0.7039981784103698,0.7092743267354868,0.0025,0.0,0.0,0.0,0.0025,0.0,0.0,0.0,0.0025,0.01,-0.0,-0.0,0.02,0.0,0.0,0.0,0.02,0.0,0.0,0.0,0.02,-0.598702265625,0.311417109375,9.820555781249999,0.04,0.0,0.0,0.0,0.04,0.0,0.0,0.0,0.04
1614726809.922643,3437,1614726809,922239780,base_imu_link,-0.008401754345694077,0.03518563208070627,0.703945520228627,0.7093321410799341,0.0025,0.0,0.0,0.0,0.0025,0.0,0.0,0.0,0.0025,0.01,0.0,-0.01,0.02,0.0,0.0,0.0,0.02,0.0,0.0,0.0,0.02,-0.6082784375,0.36389453125,9.897165156249999,0.04,0.0,0.0,0.0,0.04,0.0,0.0,0.0,0.04
1614726809.9425871,3438,1614726809,942210197,base_imu_link,-0.008457524761941346,0.035125677762917834,0.7038247756676383,0.7094542565895248,0.0025,0.0,0.0,0.0,0.0025,0.0,0.0,0.0,0.0025,0.0,-0.01,-0.01,0.02,0.0,0.0,0.0,0.02,0.0,0.0,0.0,0.02,-0.612875,0.38304687499999995,9.930490234374998,0.04,0.0,0.0,0.0,0.04,0.0,0.0,0.0,0.04
1614726809.9626164,3439,1614726809,962202310,base_imu_link,-0.008389471731495282,0.03518856270254096,0.7036978737198006,0.7095778212016122,0.0025,0.0,0.0,0.0,0.0025,0.0,0.0,0.0,0.0025,0.01,-0.01,-0.0,0.02,0.0,0.0,0.0,0.02,0.0,0.0,0.0,0.02,-0.59372265625,0.392623046875,9.90635828125,0.04,0.0,0.0,0.0,0.04,0.0,0.0,0.0,0.04
1614726809.9825597,3440,1614726809,982154846,base_imu_link,-0.008207651750874342,0.035125554162592144,0.7037628511239462,0.7095186250377091,0.0025,0.0,0.0,0.0,0.0025,0.0,0.0,0.0,0.0025,0.01,-0.02,-0.0,0.02,0.0,0.0,0.0,0.02,0.0,0.0,0.0,0.02,-0.5745703124999999,0.407178828125,9.863457031249999,0.04,0.0,0.0,0.0,0.04,0.0,0.0,0.0,0.04
1614726810.0026946,3441,1614726810,2248764,base_imu_link,-0.007898925589865269,0.035186107394035854,0.7037597732368175,0.7095221817495518,0.0025,0.0,0.0,0.0,0.0025,0.0,0.0,0.0,0.0025,0.01,-0.02,0.0,0.02,0.0,0.0,0.0,0.02,0.0,0.0,0.0,0.02,-0.5554179687499999,0.368874140625,9.806,0.04,0.0,0.0,0.0,0.04,0.0,0.0,0.0,0.04
1614726810.0230713,3442,1614726810,22655248,base_imu_link,-0.007714463629594442,0.03500057001608496,0.7037689461593529,0.7095242896273604,0.0025,0.0,0.0,0.0,0.0025,0.0,0.0,0.0,0.0025,0.01,-0.01,0.0,0.02,0.0,0.0,0.0,0.02,0.0,0.0,0.0,0.02,-0.5841464843749999,0.392623046875,9.815576171875,0.04,0.0,0.0,0.0,0.04,0.0,0.0,0.0,0.04
1614726810.0427997,3443,1614726810,42418718,base_imu_link,-0.00758494963479015,0.03500146360545902,0.7036450951176405,0.7096484666378136,0.0025,0.0,0.0,0.0,0.0025,0.0,0.0,0.0,0.0025,0.01,-0.01,0.0,0.02,0.0,0.0,0.0,0.02,0.0,0.0,0.0,0.02,-0.59372265625,0.35929796875,9.8872059375,0.04,0.0,0.0,0.0,0.04,0.0,0.0,0.0,0.04
1614726810.0629463,3444,1614726810,62536001,base_imu_link,-0.0075884450842952835,0.0348775394468386,0.7037131141686908,0.7095870811185473,0.0025,0.0,0.0,0.0,0.0025,0.0,0.0,0.0,0.0025,0.01,-0.02,0.0,0.02,0.0,0.0,0.0,0.02,0.0,0.0,0.0,0.02,-0.579549921875,0.340145625,9.97377453125,0.04,0.0,0.0,0.0,0.04,0.0,0.0,0.0,0.04
1614726810.0827942,3445,1614726810,82358360,base_imu_link,-0.0075248282346345105,0.03456981555484673,0.7036663247989018,0.7096492148636181,0.0025,0.0,0.0,0.0,0.0025,0.0,0.0,0.0,0.0025,0.01,-0.03,-0.0,0.02,0.0,0.0,0.0,0.02,0.0,0.0,0.0,0.02,-0.56997375,0.340145625,9.968794921874998,0.04,0.0,0.0,0.0,0.04,0.0,0.0,0.0,0.04
1614726810.103153,3446,1614726810,102619647,base_imu_link,-0.007470234651851298,0.03426011972233347,0.7038051733819549,0.7095271085107699,0.0025,0.0,0.0,0.0,0.0025,0.0,0.0,0.0,0.0025,0.01,-0.03,-0.0,0.02,0.0,0.0,0.0,0.02,0.0,0.0,0.0,0.02,-0.598702265625,0.42633117187499997,9.892185546875,0.04,0.0,0.0,0.0,0.04,0.0,0.0,0.0,0.04
1614726810.1233945,3447,1614726810,122882127,base_imu_link,-0.007102587057781336,0.03438147514888566,0.7038610897737876,0.7094695439031398,0.0025,0.0,0.0,0.0,0.0025,0.0,0.0,0.0,0.0025,0.01,-0.03,0.01,0.02,0.0,0.0,0.0,0.02,0.0,0.0,0.0,0.02,-0.6082784375,0.416755,9.839708125,0.04,0.0,0.0,0.0,0.04,0.0,0.0,0.0,0.04
1614726810.1435068,3448,1614726810,142951011,base_imu_link,-0.006925897177820377,0.03456393235981144,0.7040377796537487,0.709287086692214,0.0025,0.0,0.0,0.0,0.0025,0.0,0.0,0.0,0.0025,0.01,-0.03,0.01,0.02,0.0,0.0,0.0,0.02,0.0,0.0,0.0,0.02,-0.5745703124999999,0.35929796875,9.78684765625,0.04,0.0,0.0,0.0,0.04,0.0,0.0,0.0,0.04
1614726810.1631308,3449,1614726810,162663459,base_imu_link,-0.00686777477566399,0.03437823993319351,0.7041086909111351,0.70922628382776,0.0025,0.0,0.0,0.0,0.0025,0.0,0.0,0.0,0.0025,0.01,-0.03,0.01,0.02,0.0,0.0,0.0,0.02,0.0,0.0,0.0,0.02,-0.5554179687499999,0.30184093749999996,9.75313953125,0.04,0.0,0.0,0.0,0.04,0.0,0.0,0.0,0.04
1614726810.1829166,3450,1614726810,182506084,base_imu_link,-0.007053826050502627,0.03407063437207718,0.7041236203728279,0.7092244797273959,0.0025,0.0,0.0,0.0,0.0025,0.0,0.0,0.0,0.0025,0.01,-0.02,-0.0,0.02,0.0,0.0,0.0,0.02,0.0,0.0,0.0,0.02,-0.58912609375,0.37347070312499997,9.733987187499999,0.04,0.0,0.0,0.0,0.04,0.0,0.0,0.0,0.04
1614726810.2034912,3451,1614726810,203077316,base_imu_link,-0.007173871910325114,0.03419490662617084,0.704055776751385,0.7092846446566045,0.0025,0.0,0.0,0.0,0.0025,0.0,0.0,0.0,0.0025,0.01,-0.01,0.0,0.02,0.0,0.0,0.0,0.02,0.0,0.0,0.0,0.02,-0.622451171875,0.416755,9.782251093749998,0.04,0.0,0.0,0.0,0.04,0.0,0.0,0.0,0.04
1614726810.2235267,3452,1614726810,223092079,base_imu_link,-0.007175726454475421,0.03456408167950429,0.704099681579331,0.7092231465535992,0.0025,0.0,0.0,0.0,0.0025,0.0,0.0,0.0,0.0025,0.01,-0.01,0.0,0.02,0.0,0.0,0.0,0.02,0.0,0.0,0.0,0.02,-0.622451171875,0.39760265625,9.82974890625,0.04,0.0,0.0,0.0,0.04,0.0,0.0,0.0,0.04
1614726810.243412,3453,1614726810,242984533,base_imu_link,-0.007230799853054077,0.03475042974959604,0.7039668228946264,0.7093453569519921,0.0025,0.0,0.0,0.0,0.0025,0.0,0.0,0.0,0.0025,0.0,-0.02,-0.0,0.02,0.0,0.0,0.0,0.02,0.0,0.0,0.0,0.02,-0.6270477343749999,0.38304687499999995,9.834728515624999,0.04,0.0,0.0,0.0,0.04,0.0,0.0,0.0,0.04
1614726810.263392,3454,1614726810,262989759,base_imu_link,-0.007356851167037538,0.03487344965964595,0.7040226546196122,0.7092826101294857,0.0025,0.0,0.0,0.0,0.0025,0.0,0.0,0.0,0.0025,0.01,-0.01,-0.0,0.02,0.0,0.0,0.0,0.02,0.0,0.0,0.0,0.02,-0.646200078125,0.392623046875,9.815576171875,0.04,0.0,0.0,0.0,0.04,0.0,0.0,0.0,0.04
1614726810.2836423,3455,1614726810,283207893,base_imu_link,-0.007544061897277837,0.03518152672494669,0.7040692811561352,0.7092191442986258,0.0025,0.0,0.0,0.0,0.0025,0.0,0.0,0.0,0.0025,0.01,-0.01,0.0,0.02,0.0,0.0,0.0,0.02,0.0,0.0,0.0,0.02,-0.6320273437499999,0.392623046875,9.839708125,0.04,0.0,0.0,0.0,0.04,0.0,0.0,0.0,0.04
1614726810.303647,3456,1614726810,303212642,base_imu_link,-0.007669806128366716,0.03542775270455353,0.7041188579745992,0.709156317222659,0.0025,0.0,0.0,0.0,0.0025,0.0,0.0,0.0,0.0025,0.01,-0.01,-0.0,0.02,0.0,0.0,0.0,0.02,0.0,0.0,0.0,0.02,-0.622451171875,0.388026484375,9.848901249999999,0.04,0.0,0.0,0.0,0.04,0.0,0.0,0.0,0.04
1614726810.3236654,3457,1614726810,323241949,base_imu_link,-0.007663235476229158,0.035552348269345224,0.7039888860883546,0.7092791788983013,0.0025,0.0,0.0,0.0,0.0025,0.0,0.0,0.0,0.0025,0.01,-0.01,-0.0,0.02,0.0,0.0,0.0,0.02,0.0,0.0,0.0,0.02,-0.6174715625,0.407178828125,9.825152343749998,0.04,0.0,0.0,0.0,0.04,0.0,0.0,0.0,0.04
1614726810.3439796,3458,1614726810,343485355,base_imu_link,-0.007656212837942263,0.035800196766736785,0.7038526381946464,0.7094019960663202,0.0025,0.0,0.0,0.0,0.0025,0.0,0.0,0.0,0.0025,0.01,-0.0,0.0,0.02,0.0,0.0,0.0,0.02,0.0,0.0,0.0,0.02,-0.6174715625,0.407178828125,9.772291874999999,0.04,0.0,0.0,0.0,0.04,0.0,0.0,0.0,0.04
1614726810.364157,3459,1614726810,363670110,base_imu_link,-0.007716893633770011,0.03610853468769973,0.7038369636960694,0.709401262904465,0.0025,0.0,0.0,0.0,0.0025,0.0,0.0,0.0,0.0025,0.02,0.0,0.01,0.02,0.0,0.0,0.0,0.02,0.0,0.0,0.0,0.02,-0.6032988281249999,0.40219921875,9.78684765625,0.04,0.0,0.0,0.0,0.04,0.0,0.0,0.0,0.04
1614726810.3841178,3460,1614726810,383661270,base_imu_link,-0.0077133230659596295,0.03623245934252178,0.703768745730894,0.709462660095397,0.0025,0.0,0.0,0.0,0.0025,0.0,0.0,0.0,0.0025,0.01,0.0,0.01,0.02,0.0,0.0,0.0,0.02,0.0,0.0,0.0,0.02,-0.579549921875,0.40219921875,9.82974890625,0.04,0.0,0.0,0.0,0.04,0.0,0.0,0.0,0.04
1614726810.4040327,3461,1614726810,403573513,base_imu_link,-0.0077133230659596295,0.03623245934252178,0.703768745730894,0.709462660095397,0.0025,0.0,0.0,0.0,0.0025,0.0,0.0,0.0,0.0025,0.01,-0.0,0.01,0.02,0.0,0.0,0.0,0.02,0.0,0.0,0.0,0.02,-0.5841464843749999,0.416755,9.8872059375,0.04,0.0,0.0,0.0,0.04,0.0,0.0,0.0,0.04
1614726810.423926,3462,1614726810,423557519,base_imu_link,-0.007531172555105424,0.03629279753438093,0.7038274863837896,0.7094032588716731,0.0025,0.0,0.0,0.0,0.0025,0.0,0.0,0.0,0.0025,0.01,-0.0,0.01,0.02,0.0,0.0,0.0,0.02,0.0,0.0,0.0,0.02,-0.58912609375,0.39760265625,9.901761718749999,0.04,0.0,0.0,0.0,0.04,0.0,0.0,0.0,0.04
1614726810.4440813,3463,1614726810,443675279,base_imu_link,-0.007469674128518077,0.03623096763157804,0.7038306464194038,0.7094039343799395,0.0025,0.0,0.0,0.0,0.0025,0.0,0.0,0.0,0.0025,0.01,-0.01,0.01,0.02,0.0,0.0,0.0,0.02,0.0,0.0,0.0,0.02,-0.59372265625,0.41177539062499996,9.8872059375,0.04,0.0,0.0,0.0,0.04,0.0,0.0,0.0,0.04
1614726810.4642856,3464,1614726810,463809251,base_imu_link,-0.007346268386530817,0.036230558401140416,0.7038306420623639,0.7094052482698556,0.0025,0.0,0.0,0.0,0.0025,0.0,0.0,0.0,0.0025,0.01,-0.01,0.01,0.02,0.0,0.0,0.0,0.02,0.0,0.0,0.0,0.02,-0.5841464843749999,0.41177539062499996,9.848901249999999,0.04,0.0,0.0,0.0,0.04,0.0,0.0,0.0,0.04
1614726810.4842687,3465,1614726810,483817100,base_imu_link,-0.007225626107207067,0.03635276905308937,0.7038862126345733,0.7093450966719146,0.0025,0.0,0.0,0.0,0.0025,0.0,0.0,0.0,0.0025,0.02,-0.01,0.01,0.02,0.0,0.0,0.0,0.02,0.0,0.0,0.0,0.02,-0.59372265625,0.38304687499999995,9.848901249999999,0.04,0.0,0.0,0.0,0.04,0.0,0.0,0.0,0.04
1614726810.5040734,3466,1614726810,503641128,base_imu_link,-0.007157368457448132,0.036415444325525854,0.7037592226724141,0.7094685644867281,0.0025,0.0,0.0,0.0,0.0025,0.0,0.0,0.0,0.0025,0.02,-0.0,0.01,0.02,0.0,0.0,0.0,0.02,0.0,0.0,0.0,0.02,-0.58912609375,0.35431835937499995,9.782251093749998,0.04,0.0,0.0,0.0,0.04,0.0,0.0,0.0,0.04
1614726810.5241382,3467,1614726810,523672342,base_imu_link,-0.007154190583188641,0.036416068785092126,0.7036973071808277,0.7095299763630786,0.0025,0.0,0.0,0.0,0.0025,0.0,0.0,0.0,0.0025,0.03,0.0,-0.0,0.02,0.0,0.0,0.0,0.02,0.0,0.0,0.0,0.02,-0.579549921875,0.32558984375,9.738966796875,0.04,0.0,0.0,0.0,0.04,0.0,0.0,0.0,0.04
1614726810.5442195,3468,1614726810,543753147,base_imu_link,-0.00726441114987752,0.03654228610412388,0.7034432344361591,0.7097742638211986,0.0025,0.0,0.0,0.0,0.0025,0.0,0.0,0.0,0.0025,0.05,0.01,-0.01,0.02,0.0,0.0,0.0,0.02,0.0,0.0,0.0,0.02,-0.59372265625,0.30184093749999996,9.6573778125,0.04,0.0,0.0,0.0,0.04,0.0,0.0,0.0,0.04
1614726810.564208,3469,1614726810,563743114,base_imu_link,-0.007435472496103022,0.036853710731173266,0.7031794424767434,0.7100177388151645,0.0025,0.0,0.0,0.0,0.0025,0.0,0.0,0.0,0.0025,0.07,0.03,-0.02,0.02,0.0,0.0,0.0,0.02,0.0,0.0,0.0,0.02,-0.63662390625,0.368874140625,9.67193359375,0.04,0.0,0.0,0.0,0.04,0.0,0.0,0.0,0.04
1614726810.584544,3470,1614726810,584109783,base_imu_link,-0.007598087846801301,0.03753629941455716,0.7027719194031898,0.7103836460573183,0.0025,0.0,0.0,0.0,0.0025,0.0,0.0,0.0,0.0025,0.06,0.03,-0.03,0.02,0.0,0.0,0.0,0.02,0.0,0.0,0.0,0.02,-0.699060546875,0.48838476562499994,9.782251093749998,0.04,0.0,0.0,0.0,0.04,0.0,0.0,0.0,0.04
1614726810.6045976,3471,1614726810,604127645,base_imu_link,-0.00759344200894912,0.038522169528851485,0.7027188717228143,0.7103833960741635,0.0025,0.0,0.0,0.0,0.0025,0.0,0.0,0.0,0.0025,0.04,0.02,-0.0,0.02,0.0,0.0,0.0,0.02,0.0,0.0,0.0,0.02,-0.7277890625,0.5316690625,9.8780128125,0.04,0.0,0.0,0.0,0.04,0.0,0.0,0.0,0.04
1614726810.624811,3472,1614726810,624345064,base_imu_link,-0.007582503140351762,0.03938606839323265,0.7025473298986369,0.7105058004794514,0.0025,0.0,0.0,0.0,0.0025,0.0,0.0,0.0,0.0025,0.02,0.01,0.01,0.02,0.0,0.0,0.0,0.02,0.0,0.0,0.0,0.02,-0.699060546875,0.48838476562499994,9.90635828125,0.04,0.0,0.0,0.0,0.04,0.0,0.0,0.0,0.04
1614726810.6449978,3473,1614726810,644572019,base_imu_link,-0.007711039675168643,0.03975498297039305,0.702650632901937,0.7103817067455067,0.0025,0.0,0.0,0.0,0.0025,0.0,0.0,0.0,0.0025,-0.0,0.0,0.02,0.02,0.0,0.0,0.0,0.02,0.0,0.0,0.0,0.02,-0.665352421875,0.4550596875,9.858860468749999,0.04,0.0,0.0,0.0,0.04,0.0,0.0,0.0,0.04
1614726810.6650968,3474,1614726810,664638042,base_imu_link,-0.007964227371904522,0.03987797322112578,0.7027676770873216,0.7102562286776751,0.0025,0.0,0.0,0.0,0.0025,0.0,0.0,0.0,0.0025,-0.01,0.01,0.02,0.02,0.0,0.0,0.0,0.02,0.0,0.0,0.0,0.02,-0.6511796875,0.392623046875,9.839708125,0.04,0.0,0.0,0.0,0.04,0.0,0.0,0.0,0.04
1614726810.6852286,3475,1614726810,684674263,base_imu_link,-0.008396978390407277,0.03969510768973275,0.7027781064232834,0.710251168468955,0.0025,0.0,0.0,0.0,0.0025,0.0,0.0,0.0,0.0025,-0.01,0.02,0.01,0.02,0.0,0.0,0.0,0.02,0.0,0.0,0.0,0.02,-0.6511796875,0.388026484375,9.834728515624999,0.04,0.0,0.0,0.0,0.04,0.0,0.0,0.0,0.04
1614726810.7050185,3476,1614726810,704607486,base_imu_link,-0.008781558791888125,0.03957050620919561,0.7030329178160549,0.7100012505133895,0.0025,0.0,0.0,0.0,0.0025,0.0,0.0,0.0,0.0025,-0.01,0.02,0.01,0.02,0.0,0.0,0.0,0.02,0.0,0.0,0.0,0.02,-0.646200078125,0.392623046875,9.839708125,0.04,0.0,0.0,0.0,0.04,0.0,0.0,0.0,0.04
1614726810.7249439,3477,1614726810,724503040,base_imu_link,-0.009217171675284574,0.039509901386305765,0.703098344615251,0.7099343133262728,0.0025,0.0,0.0,0.0,0.0025,0.0,0.0,0.0,0.0025,-0.01,0.02,-0.0,0.02,0.0,0.0,0.0,0.02,0.0,0.0,0.0,0.02,-0.646200078125,0.44050390624999997,9.86805359375,0.04,0.0,0.0,0.0,0.04,0.0,0.0,0.0,0.04
1614726810.7452781,3478,1614726810,744911432,base_imu_link,-0.00933712508277296,0.03951122249114305,0.7030363953839379,0.7099940198043949,0.0025,0.0,0.0,0.0,0.0025,0.0,0.0,0.0,0.0025,-0.01,0.02,0.0,0.02,0.0,0.0,0.0,0.02,0.0,0.0,0.0,0.02,-0.646200078125,0.48838476562499994,9.892185546875,0.04,0.0,0.0,0.0,0.04,0.0,0.0,0.0,0.04
1614726810.7653644,3479,1614726810,764921426,base_imu_link,-0.00922309955012991,0.0397547297433093,0.7032084196677215,0.7098115344273792,0.0025,0.0,0.0,0.0,0.0025,0.0,0.0,0.0,0.0025,-0.0,0.02,0.01,0.02,0.0,0.0,0.0,0.02,0.0,0.0,0.0,0.02,-0.6607558593749999,0.507537109375,9.95921875,0.04,0.0,0.0,0.0,0.04,0.0,0.0,0.0,0.04
1614726810.7854445,3480,1614726810,785000801,base_imu_link,-0.009102220740043349,0.03999988379618249,0.7032564463102543,0.7097517380020735,0.0025,0.0,0.0,0.0,0.0025,0.0,0.0,0.0,0.0025,-0.01,0.01,0.01,0.02,0.0,0.0,0.0,0.02,0.0,0.0,0.0,0.02,-0.665352421875,0.47421203125,9.968794921874998,0.04,0.0,0.0,0.0,0.04,0.0,0.0,0.0,0.04
1614726810.8054705,3481,1614726810,805005788,base_imu_link,-0.009047275052145146,0.04005967590893811,0.7033768174574715,0.7096297780135786,0.0025,0.0,0.0,0.0,0.0025,0.0,0.0,0.0,0.0025,-0.0,0.0,0.01,0.02,0.0,0.0,0.0,0.02,0.0,0.0,0.0,0.02,-0.63662390625,0.416755,9.949642578125,0.04,0.0,0.0,0.0,0.04,0.0,0.0,0.0,0.04
1614726810.825213,3482,1614726810,824818611,base_imu_link,-0.008982771604980415,0.039875410376504855,0.7033253394781012,0.7096919953822306,0.0025,0.0,0.0,0.0,0.0025,0.0,0.0,0.0,0.0025,0.01,0.0,0.01,0.02,0.0,0.0,0.0,0.02,0.0,0.0,0.0,0.02,-0.612875,0.407178828125,9.897165156249999,0.04,0.0,0.0,0.0,0.04,0.0,0.0,0.0,0.04
1614726810.845436,3483,1614726810,845026016,base_imu_link,-0.008925227601877857,0.03968957402007577,0.7033976723951055,0.7096314483557696,0.0025,0.0,0.0,0.0,0.0025,0.0,0.0,0.0,0.0025,0.01,0.0,0.01,0.02,0.0,0.0,0.0,0.02,0.0,0.0,0.0,0.02,-0.6032988281249999,0.407178828125,9.8780128125,0.04,0.0,0.0,0.0,0.04,0.0,0.0,0.0,0.04
1614726810.8653195,3484,1614726810,864855051,base_imu_link,-0.008679325441560018,0.03944223031814806,0.703411460606525,0.709634622087173,0.0025,0.0,0.0,0.0,0.0025,0.0,0.0,0.0,0.0025,0.01,-0.01,0.01,0.02,0.0,0.0,0.0,0.02,0.0,0.0,0.0,0.02,-0.6032988281249999,0.45008007812499995,9.944662968749999,0.04,0.0,0.0,0.0,0.04,0.0,0.0,0.0,0.04
1614726810.8854613,3485,1614726810,884886264,base_imu_link,-0.008248542491475762,0.03913259163549984,0.7034285699352131,0.7096399430820932,0.0025,0.0,0.0,0.0,0.0025,0.0,0.0,0.0,0.0025,0.01,-0.02,0.01,0.02,0.0,0.0,0.0,0.02,0.0,0.0,0.0,0.02,-0.6320273437499999,0.47880859374999996,9.9975234375,0.04,0.0,0.0,0.0,0.04,0.0,0.0,0.0,0.04
1614726810.9053931,3486,1614726810,904912233,base_imu_link,-0.007875377196419236,0.03900869779159276,0.7033734371666096,0.7097056487157528,0.0025,0.0,0.0,0.0,0.0025,0.0,0.0,0.0,0.0025,0.0,-0.03,0.01,0.02,0.0,0.0,0.0,0.02,0.0,0.0,0.0,0.02,-0.6511796875,0.46923242187499997,9.982967656249999,0.04,0.0,0.0,0.0,0.04,0.0,0.0,0.0,0.04
1614726810.9254658,3487,1614726810,925047397,base_imu_link,-0.007567558533975975,0.03882270142883356,0.7033836046626329,0.7097091197127195,0.0025,0.0,0.0,0.0,0.0025,0.0,0.0,0.0,0.0025,0.01,-0.04,0.02,0.02,0.0,0.0,0.0,0.02,0.0,0.0,0.0,0.02,-0.65577625,0.430927734375,9.95921875,0.04,0.0,0.0,0.0,0.04,0.0,0.0,0.0,0.04
1614726810.9451103,3488,1614726810,944721937,base_imu_link,-0.007256839864726817,0.0385141067982265,0.7033385152702619,0.7097738617264909,0.0025,0.0,0.0,0.0,0.0025,0.0,0.0,0.0,0.0025,0.01,-0.05,0.01,0.02,0.0,0.0,0.0,0.02,0.0,0.0,0.0,0.02,-0.6607558593749999,0.388026484375,9.911337890625,0.04,0.0,0.0,0.0,0.04,0.0,0.0,0.0,0.04
1614726810.965512,3489,1614726810,965026140,base_imu_link,-0.007258259394693722,0.0381444128151152,0.7033585695373583,0.709773938729727,0.0025,0.0,0.0,0.0,0.0025,0.0,0.0,0.0,0.0025,0.01,-0.05,0.01,0.02,0.0,0.0,0.0,0.02,0.0,0.0,0.0,0.02,-0.67492859375,0.39760265625,9.79144421875,0.04,0.0,0.0,0.0,0.04,0.0,0.0,0.0,0.04
1614726810.985372,3490,1614726810,984887599,base_imu_link,-0.0073206720156711695,0.03795979882164807,0.7033685265724587,0.7097733280857681,0.0025,0.0,0.0,0.0,0.0025,0.0,0.0,0.0,0.0025,0.01,-0.04,0.01,0.02,0.0,0.0,0.0,0.02,0.0,0.0,0.0,0.02,-0.699060546875,0.3784503125,9.67653015625,0.04,0.0,0.0,0.0,0.04,0.0,0.0,0.0,0.04
1614726811.0055666,3491,1614726811,5059242,base_imu_link,-0.007567482806072022,0.037960746511708325,0.7033685367451412,0.7097706787725544,0.0025,0.0,0.0,0.0,0.0025,0.0,0.0,0.0,0.0025,0.01,-0.03,0.01,0.02,0.0,0.0,0.0,0.02,0.0,0.0,0.0,0.02,-0.71323328125,0.37347070312499997,9.643205078125,0.04,0.0,0.0,0.0,0.04,0.0,0.0,0.0,0.04
1614726811.025718,3492,1614726811,25231361,base_imu_link,-0.008009117206773362,0.03802192674325945,0.7035510346909575,0.7095816575374405,0.0025,0.0,0.0,0.0,0.0025,0.0,0.0,0.0,0.0025,0.01,-0.02,0.01,0.02,0.0,0.0,0.0,0.02,0.0,0.0,0.0,0.02,-0.741961796875,0.407178828125,9.7247940625,0.04,0.0,0.0,0.0,0.04,0.0,0.0,0.0,0.04
1614726811.0456855,3493,1614726811,45237064,base_imu_link,-0.008381357013160503,0.03839221791169305,0.7035929801496769,0.7095158269852304,0.0025,0.0,0.0,0.0,0.0025,0.0,0.0,0.0,0.0025,0.01,-0.01,0.02,0.02,0.0,0.0,0.0,0.02,0.0,0.0,0.0,0.02,-0.7611141406249999,0.42135156249999994,9.810596562499999,0.04,0.0,0.0,0.0,0.04,0.0,0.0,0.0,0.04
1614726811.0658395,3494,1614726811,65350055,base_imu_link,-0.008753659207016718,0.038762433873509014,0.7036347265658168,0.7094498000150098,0.0025,0.0,0.0,0.0,0.0025,0.0,0.0,0.0,0.0025,0.01,-0.02,0.02,0.02,0.0,0.0,0.0,0.02,0.0,0.0,0.0,0.02,-0.75153796875,0.416755,9.834728515624999,0.04,0.0,0.0,0.0,0.04,0.0,0.0,0.0,0.04
1614726811.085969,3495,1614726811,85470199,base_imu_link,-0.009078530205799674,0.03894436609411487,0.7039340628761704,0.7091387394307814,0.0025,0.0,0.0,0.0,0.0025,0.0,0.0,0.0,0.0025,0.0,-0.03,0.02,0.02,0.0,0.0,0.0,0.02,0.0,0.0,0.0,0.02,-0.756517578125,0.41177539062499996,9.79144421875,0.04,0.0,0.0,0.0,0.04,0.0,0.0,0.0,0.04
1614726811.1059382,3496,1614726811,105436325,base_imu_link,-0.009334863290647888,0.03918910511420194,0.7041060719872502,0.7089511363686344,0.0025,0.0,0.0,0.0,0.0025,0.0,0.0,0.0,0.0025,0.0,-0.02,0.02,0.02,0.0,0.0,0.0,0.02,0.0,0.0,0.0,0.02,-0.756517578125,0.416755,9.719814453124998,0.04,0.0,0.0,0.0,0.04,0.0,0.0,0.0,0.04
1614726811.1258705,3497,1614726811,125392436,base_imu_link,-0.009697163195461976,0.03956146489080368,0.7039617376992647,0.709068915816429,0.0025,0.0,0.0,0.0,0.0025,0.0,0.0,0.0,0.0025,0.01,-0.01,0.02,0.02,0.0,0.0,0.0,0.02,0.0,0.0,0.0,0.02,-0.7373652343749999,0.388026484375,9.7247940625,0.04,0.0,0.0,0.0,0.04,0.0,0.0,0.0,0.04
1614726811.1460407,3498,1614726811,145579576,base_imu_link,-0.009960623785910432,0.03980427060706192,0.7042572261091375,0.7087581854823959,0.0025,0.0,0.0,0.0,0.0025,0.0,0.0,0.0,0.0025,0.02,0.0,0.02,0.02,0.0,0.0,0.0,0.02,0.0,0.0,0.0,0.02,-0.722809453125,0.40219921875,9.75313953125,0.04,0.0,0.0,0.0,0.04,0.0,0.0,0.0,0.04
1614726811.1663427,3499,1614726811,165873765,base_imu_link,-0.01020332696616046,0.04005219698553253,0.7041814528612373,0.7088160516535235,0.0025,0.0,0.0,0.0,0.0025,0.0,0.0,0.0,0.0025,0.01,0.0,0.02,0.02,0.0,0.0,0.0,0.02,0.0,0.0,0.0,0.02,-0.7182128906249999,0.41177539062499996,9.78684765625,0.04,0.0,0.0,0.0,0.04,0.0,0.0,0.0,0.04
1614726811.186051,3500,1614726811,185607910,base_imu_link,-0.010394691043250446,0.040358885854480386,0.7042876283884233,0.7086903747263049,0.0025,0.0,0.0,0.0,0.0025,0.0,0.0,0.0,0.0025,0.01,0.01,0.02,0.02,0.0,0.0,0.0,0.02,0.0,0.0,0.0,0.02,-0.6894843749999999,0.3784503125,9.810596562499999,0.04,0.0,0.0,0.0,0.04,0.0,0.0,0.0,0.04
1614726811.2063513,3501,1614726811,205888032,base_imu_link,-0.010586968193008944,0.040295868603106993,0.7044148306428549,0.7085646797917601,0.0025,0.0,0.0,0.0,0.0025,0.0,0.0,0.0,0.0025,0.01,0.01,0.01,0.02,0.0,0.0,0.0,0.02,0.0,0.0,0.0,0.02,-0.665352421875,0.41177539062499996,9.853880859375,0.04,0.0,0.0,0.0,0.04,0.0,0.0,0.0,0.04
1614726811.226449,3502,1614726811,225996971,base_imu_link,-0.010532177743949352,0.04035550264293508,0.7045349687803454,0.7084426472228247,0.0025,0.0,0.0,0.0,0.0025,0.0,0.0,0.0,0.0025,0.01,0.01,0.01,0.02,0.0,0.0,0.0,0.02,0.0,0.0,0.0,0.02,-0.6607558593749999,0.44050390624999997,9.901761718749999,0.04,0.0,0.0,0.0,0.04,0.0,0.0,0.0,0.04
1614726811.2463984,3503,1614726811,245956182,base_imu_link,-0.01036848114966098,0.040164887984917574,0.7049163430897586,0.708076426395322,0.0025,0.0,0.0,0.0,0.0025,0.0,0.0,0.0,0.0025,-0.0,-0.01,0.02,0.02,0.0,0.0,0.0,0.02,0.0,0.0,0.0,0.02,-0.6607558593749999,0.42135156249999994,9.940066406249999,0.04,0.0,0.0,0.0,0.04,0.0,0.0,0.0,0.04
1614726811.2660093,3504,1614726811,265543460,base_imu_link,-0.010248930208820844,0.03991737988246847,0.7049921009865499,0.7080167369204374,0.0025,0.0,0.0,0.0,0.0025,0.0,0.0,0.0,0.0025,0.0,-0.01,0.02,0.02,0.0,0.0,0.0,0.02,0.0,0.0,0.0,0.02,-0.641603515625,0.3784503125,9.9209140625,0.04,0.0,0.0,0.0,0.04,0.0,0.0,0.0,0.04
1614726811.2859688,3505,1614726811,285565376,base_imu_link,-0.010064259686760555,0.03960907606208084,0.7050094410135493,0.7080194346571486,0.0025,0.0,0.0,0.0,0.0025,0.0,0.0,0.0,0.0025,0.01,-0.01,0.02,0.02,0.0,0.0,0.0,0.02,0.0,0.0,0.0,0.02,-0.63662390625,0.37347070312499997,9.86805359375,0.04,0.0,0.0,0.0,0.04,0.0,0.0,0.0,0.04
1614726811.3060367,3506,1614726811,305570840,base_imu_link,-0.010002817393110501,0.03942415906732826,0.7050197815227843,0.7080203295016321,0.0025,0.0,0.0,0.0,0.0025,0.0,0.0,0.0,0.0025,0.02,-0.01,0.02,0.02,0.0,0.0,0.0,0.02,0.0,0.0,0.0,0.02,-0.6270477343749999,0.349721796875,9.863457031249999,0.04,0.0,0.0,0.0,0.04,0.0,0.0,0.0,0.04
1614726811.3262901,3507,1614726811,325879335,base_imu_link,-0.009880104643360465,0.03893109134324682,0.7050471204860064,0.7080221123336833,0.0025,0.0,0.0,0.0,0.0025,0.0,0.0,0.0,0.0025,0.01,-0.02,0.01,0.02,0.0,0.0,0.0,0.02,0.0,0.0,0.0,0.02,-0.63662390625,0.335166015625,9.8780128125,0.04,0.0,0.0,0.0,0.04,0.0,0.0,0.0,0.04
1614726811.3465874,3508,1614726811,346123695,base_imu_link,-0.009825725572856518,0.03849799180317302,0.7051943233117279,0.7078999407493999,0.0025,0.0,0.0,0.0,0.0025,0.0,0.0,0.0,0.0025,0.01,-0.02,0.01,0.02,0.0,0.0,0.0,0.02,0.0,0.0,0.0,0.02,-0.6607558593749999,0.392623046875,9.820555781249999,0.04,0.0,0.0,0.0,0.04,0.0,0.0,0.0,0.04
1614726811.3665836,3509,1614726811,366136789,base_imu_link,-0.009770808417528374,0.038434596337051874,0.7053212193615381,0.7077777127217478,0.0025,0.0,0.0,0.0,0.0025,0.0,0.0,0.0,0.0025,0.01,-0.02,0.01,0.02,0.0,0.0,0.0,0.02,0.0,0.0,0.0,0.02,-0.67492859375,0.40219921875,9.782251093749998,0.04,0.0,0.0,0.0,0.04,0.0,0.0,0.0,0.04
1614726811.3864467,3510,1614726811,385950803,base_imu_link,-0.009719121058005119,0.03849360393767699,0.7055031344460455,0.7075938866528978,0.0025,0.0,0.0,0.0,0.0025,0.0,0.0,0.0,0.0025,0.01,-0.01,0.01,0.02,0.0,0.0,0.0,0.02,0.0,0.0,0.0,0.02,-0.665352421875,0.3784503125,9.810596562499999,0.04,0.0,0.0,0.0,0.04,0.0,0.0,0.0,0.04
1614726811.4065518,3511,1614726811,406044244,base_imu_link,-0.009784224027039372,0.0384311833400023,0.7055682374150799,0.7075314660552232,0.0025,0.0,0.0,0.0,0.0025,0.0,0.0,0.0,0.0025,0.01,-0.01,0.01,0.02,0.0,0.0,0.0,0.02,0.0,0.0,0.0,0.02,-0.665352421875,0.35929796875,9.839708125,0.04,0.0,0.0,0.0,0.04,0.0,0.0,0.0,0.04
1614726811.4266021,3512,1614726811,426063060,base_imu_link,-0.009842716126601175,0.038247237626836565,0.7055165269048643,0.7075921848192397,0.0025,0.0,0.0,0.0,0.0025,0.0,0.0,0.0,0.0025,0.01,-0.02,0.01,0.02,0.0,0.0,0.0,0.02,0.0,0.0,0.0,0.02,-0.646200078125,0.330569453125,9.8014034375,0.04,0.0,0.0,0.0,0.04,0.0,0.0,0.0,0.04
1614726811.4462655,3513,1614726811,445866346,base_imu_link,-0.009953045486367253,0.03800434323996803,0.7052827947034328,0.7078366946377959,0.0025,0.0,0.0,0.0,0.0025,0.0,0.0,0.0,0.0025,0.02,-0.01,-0.01,0.02,0.0,0.0,0.0,0.02,0.0,0.0,0.0,0.02,-0.6511796875,0.34474218749999996,9.810596562499999,0.04,0.0,0.0,0.0,0.04,0.0,0.0,0.0,0.04
1614726811.466695,3514,1614726811,466270923,base_imu_link,-0.010076586143025123,0.037881247592501305,0.7052894169705238,0.707834946722692,0.0025,0.0,0.0,0.0,0.0025,0.0,0.0,0.0,0.0025,0.02,-0.0,-0.01,0.02,0.0,0.0,0.0,0.02,0.0,0.0,0.0,0.02,-0.6799082031249999,0.42135156249999994,9.882609375,0.04,0.0,0.0,0.0,0.04,0.0,0.0,0.0,0.04
1614726811.4867218,3515,1614726811,486258745,base_imu_link,-0.010014676047025415,0.03806603062386344,0.7052794774925724,0.707835815852815,0.0025,0.0,0.0,0.0,0.0025,0.0,0.0,0.0,0.0025,0.01,-0.01,-0.01,0.02,0.0,0.0,0.0,0.02,0.0,0.0,0.0,0.02,-0.7086367187499999,0.483788203125,9.987947265625,0.04,0.0,0.0,0.0,0.04,0.0,0.0,0.0,0.04
1614726811.506942,3516,1614726811,506536483,base_imu_link,-0.009709172170356033,0.03837291607721022,0.7053245689339634,0.7077785697134495,0.0025,0.0,0.0,0.0,0.0025,0.0,0.0,0.0,0.0025,0.0,-0.03,0.01,0.02,0.0,0.0,0.0,0.02,0.0,0.0,0.0,0.02,-0.7036571093749999,0.545841796875,9.9638153125,0.04,0.0,0.0,0.0,0.04,0.0,0.0,0.0,0.04
1614726811.5272446,3517,1614726811,526848793,base_imu_link,-0.009338707908670961,0.038618989228178094,0.7053111295633158,0.707783563471002,0.0025,0.0,0.0,0.0,0.0025,0.0,0.0,0.0,0.0025,-0.01,-0.04,0.02,0.02,0.0,0.0,0.0,0.02,0.0,0.0,0.0,0.02,-0.6799082031249999,0.49336437499999997,9.863457031249999,0.04,0.0,0.0,0.0,0.04,0.0,0.0,0.0,0.04
1614726811.5473146,3518,1614726811,546771287,base_imu_link,-0.009085161983113117,0.03862031702202895,0.7051875833384561,0.7079098835657873,0.0025,0.0,0.0,0.0,0.0025,0.0,0.0,0.0,0.0025,-0.02,-0.03,0.03,0.02,0.0,0.0,0.0,0.02,0.0,0.0,0.0,0.02,-0.641603515625,0.40219921875,9.8014034375,0.04,0.0,0.0,0.0,0.04,0.0,0.0,0.0,0.04
1614726811.5672898,3519,1614726811,566769361,base_imu_link,-0.00909241855304514,0.0381258044393345,0.7053379084010142,0.7077868223788801,0.0025,0.0,0.0,0.0,0.0025,0.0,0.0,0.0,0.0025,-0.03,-0.03,0.02,0.02,0.0,0.0,0.0,0.02,0.0,0.0,0.0,0.02,-0.646200078125,0.416755,9.8443046875,0.04,0.0,0.0,0.0,0.04,0.0,0.0,0.0,0.04
1614726811.5872643,3520,1614726811,586769580,base_imu_link,-0.009102786711801425,0.037630477712971976,0.7055496204775327,0.7076021618573411,0.0025,0.0,0.0,0.0,0.0025,0.0,0.0,0.0,0.0025,-0.03,-0.04,0.03,0.02,0.0,0.0,0.0,0.02,0.0,0.0,0.0,0.02,-0.665352421875,0.41177539062499996,9.863457031249999,0.04,0.0,0.0,0.0,0.04,0.0,0.0,0.0,0.04
1614726811.6075335,3521,1614726811,606989383,base_imu_link,-0.009174500874213844,0.03732002560251112,0.7057511955779331,0.7074166340729167,0.0025,0.0,0.0,0.0,0.0025,0.0,0.0,0.0,0.0025,-0.03,-0.04,0.03,0.02,0.0,0.0,0.0,0.02,0.0,0.0,0.0,0.02,-0.65577625,0.40219921875,9.8872059375,0.04,0.0,0.0,0.0,0.04,0.0,0.0,0.0,0.04
1614726811.627487,3522,1614726811,626948356,base_imu_link,-0.00918114336760491,0.03694869435245251,0.7058940937286868,0.7072934532646746,0.0025,0.0,0.0,0.0,0.0025,0.0,0.0,0.0,0.0025,-0.02,-0.04,0.04,0.02,0.0,0.0,0.0,0.02,0.0,0.0,0.0,0.02,-0.6320273437499999,0.368874140625,9.882609375,0.04,0.0,0.0,0.0,0.04,0.0,0.0,0.0,0.04
1614726811.6474223,3523,1614726811,646864652,base_imu_link,-0.009181315452995796,0.036455706041805334,0.7059197144586423,0.7072934622079972,0.0025,0.0,0.0,0.0,0.0025,0.0,0.0,0.0,0.0025,-0.02,-0.04,0.03,0.02,0.0,0.0,0.0,0.02,0.0,0.0,0.0,0.02,-0.6082784375,0.35929796875,9.8872059375,0.04,0.0,0.0,0.0,0.04,0.0,0.0,0.0,0.04
1614726811.6674907,3524,1614726811,666950941,base_imu_link,-0.009058084430374456,0.03596265688883932,0.7059449904552403,0.707295064924886,0.0025,0.0,0.0,0.0,0.0025,0.0,0.0,0.0,0.0025,-0.01,-0.05,0.02,0.02,0.0,0.0,0.0,0.02,0.0,0.0,0.0,0.02,-0.6082784375,0.3784503125,9.848901249999999,0.04,0.0,0.0,0.0,0.04,0.0,0.0,0.0,0.04
1614726811.6872764,3525,1614726811,686718940,base_imu_link,-0.008811406449497398,0.03559280466433626,0.7059637209062134,0.7072981946370022,0.0025,0.0,0.0,0.0,0.0025,0.0,0.0,0.0,0.0025,0.0,-0.04,0.02,0.02,0.0,0.0,0.0,0.02,0.0,0.0,0.0,0.02,-0.6032988281249999,0.340145625,9.8014034375,0.04,0.0,0.0,0.0,0.04,0.0,0.0,0.0,0.04
1614726811.7072418,3526,1614726811,706707715,base_imu_link,-0.008694257519262883,0.03534472855043787,0.7060995368421121,0.7071765013921484,0.0025,0.0,0.0,0.0,0.0025,0.0,0.0,0.0,0.0025,0.01,-0.03,0.01,0.02,0.0,0.0,0.0,0.02,0.0,0.0,0.0,0.02,-0.6082784375,0.36389453125,9.78684765625,0.04,0.0,0.0,0.0,0.04,0.0,0.0,0.0,0.04
1614726811.7274206,3527,1614726811,726899862,base_imu_link,-0.008567801145863618,0.03522219513475193,0.7060439787644219,0.7072396268620127,0.0025,0.0,0.0,0.0,0.0025,0.0,0.0,0.0,0.0025,0.01,-0.03,0.0,0.02,0.0,0.0,0.0,0.02,0.0,0.0,0.0,0.02,-0.59372265625,0.35431835937499995,9.79144421875,0.04,0.0,0.0,0.0,0.04,0.0,0.0,0.0,0.04
1614726811.7473347,3528,1614726811,746791601,base_imu_link,-0.008444428954007712,0.03509890206362165,0.7060501146596618,0.7072411146721093,0.0025,0.0,0.0,0.0,0.0025,0.0,0.0,0.0,0.0025,0.02,-0.02,-0.0,0.02,0.0,0.0,0.0,0.02,0.0,0.0,0.0,0.02,-0.6174715625,0.416755,9.825152343749998,0.04,0.0,0.0,0.0,0.04,0.0,0.0,0.0,0.04
1614726811.7677011,3529,1614726811,767218828,base_imu_link,-0.008253115075011757,0.035285185324196014,0.7059174535975641,0.7073665177929521,0.0025,0.0,0.0,0.0,0.0025,0.0,0.0,0.0,0.0025,0.01,-0.03,0.0,0.02,0.0,0.0,0.0,0.02,0.0,0.0,0.0,0.02,-0.6320273437499999,0.41177539062499996,9.8443046875,0.04,0.0,0.0,0.0,0.04,0.0,0.0,0.0,0.04
1614726811.7876868,3530,1614726811,787207365,base_imu_link,-0.00813892581868146,0.03540626107185321,0.706096448721527,0.707183116078345,0.0025,0.0,0.0,0.0,0.0025,0.0,0.0,0.0,0.0025,0.01,-0.02,0.01,0.02,0.0,0.0,0.0,0.02,0.0,0.0,0.0,0.02,-0.6320273437499999,0.392623046875,9.82974890625,0.04,0.0,0.0,0.0,0.04,0.0,0.0,0.0,0.04
1614726811.8075144,3531,1614726811,807054758,base_imu_link,-0.008021699902478691,0.035528098101009584,0.7062136746377297,0.7070612790491887,0.0025,0.0,0.0,0.0,0.0025,0.0,0.0,0.0,0.0025,0.01,-0.02,0.01,0.02,0.0,0.0,0.0,0.02,0.0,0.0,0.0,0.02,-0.6270477343749999,0.368874140625,9.8014034375,0.04,0.0,0.0,0.0,0.04,0.0,0.0,0.0,0.04
1614726811.8275468,3532,1614726811,827074766,base_imu_link,-0.008083402608519861,0.03558972673487558,0.706210571537227,0.7070605763315252,0.0025,0.0,0.0,0.0,0.0025,0.0,0.0,0.0,0.0025,0.02,-0.01,0.01,0.02,0.0,0.0,0.0,0.02,0.0,0.0,0.0,0.02,-0.622451171875,0.349721796875,9.82974890625,0.04,0.0,0.0,0.0,0.04,0.0,0.0,0.0,0.04
1614726811.8476648,3533,1614726811,847105741,base_imu_link,-0.008203702014654111,0.03559044277844807,0.7061488662969718,0.7071207805485499,0.0025,0.0,0.0,0.0,0.0025,0.0,0.0,0.0,0.0025,0.02,-0.01,0.0,0.02,0.0,0.0,0.0,0.02,0.0,0.0,0.0,0.02,-0.6082784375,0.35431835937499995,9.873033203124999,0.04,0.0,0.0,0.0,0.04,0.0,0.0,0.0,0.04
1614726811.8674178,3534,1614726811,866932392,base_imu_link,-0.008145105253002402,0.035651355097710294,0.7062074630586234,0.7070598682292877,0.0025,0.0,0.0,0.0,0.0025,0.0,0.0,0.0,0.0025,0.03,-0.01,-0.0,0.02,0.0,0.0,0.0,0.02,0.0,0.0,0.0,0.02,-0.6082784375,0.3784503125,9.882609375,0.04,0.0,0.0,0.0,0.04,0.0,0.0,0.0,0.04
1614726811.8877203,3535,1614726811,887241125,base_imu_link,-0.008024811039576646,0.03565065493658636,0.7062691631061704,0.7069996481298143,0.0025,0.0,0.0,0.0,0.0025,0.0,0.0,0.0,0.0025,0.02,-0.02,-0.0,0.02,0.0,0.0,0.0,0.02,0.0,0.0,0.0,0.02,-0.6174715625,0.392623046875,9.834728515624999,0.04,0.0,0.0,0.0,0.04,0.0,0.0,0.0,0.04
1614726811.9077692,3536,1614726811,907361268,base_imu_link,-0.007904538034777605,0.035773231951127554,0.7063246249263245,0.7069394021957714,0.0025,0.0,0.0,0.0,0.0025,0.0,0.0,0.0,0.0025,0.02,-0.01,0.0,0.02,0.0,0.0,0.0,0.02,0.0,0.0,0.0,0.02,-0.6032988281249999,0.330569453125,9.820555781249999,0.04,0.0,0.0,0.0,0.04,0.0,0.0,0.0,0.04
1614726811.927592,3537,1614726811,927165746,base_imu_link,-0.007956880559331534,0.03571367769385089,0.7061426437154763,0.7071236016453292,0.0025,0.0,0.0,0.0,0.0025,0.0,0.0,0.0,0.0025,0.03,-0.01,-0.01,0.02,0.0,0.0,0.0,0.02,0.0,0.0,0.0,0.02,-0.56997375,0.28268859375,9.834728515624999,0.04,0.0,0.0,0.0,0.04,0.0,0.0,0.0,0.04
1614726811.9477453,3538,1614726811,947242975,base_imu_link,-0.007944521211565846,0.03546993902427543,0.7059081911554563,0.7073700542629473,0.0025,0.0,0.0,0.0,0.0025,0.0,0.0,0.0,0.0025,0.04,-0.01,-0.02,0.02,0.0,0.0,0.0,0.02,0.0,0.0,0.0,0.02,-0.58912609375,0.349721796875,9.8014034375,0.04,0.0,0.0,0.0,0.04,0.0,0.0,0.0,0.04
1614726811.9678674,3539,1614726811,967438697,base_imu_link,-0.00794136130771882,0.035593889700876256,0.7058402579632207,0.7074316504334227,0.0025,0.0,0.0,0.0,0.0025,0.0,0.0,0.0,0.0025,0.04,-0.0,-0.02,0.02,0.0,0.0,0.0,0.02,0.0,0.0,0.0,0.02,-0.6270477343749999,0.42135156249999994,9.82974890625,0.04,0.0,0.0,0.0,0.04,0.0,0.0,0.0,0.04
1614726811.9878771,3540,1614726811,987464904,base_imu_link,-0.007863831196457137,0.03590543110707778,0.7055159186630906,0.7077402409704451,0.0025,0.0,0.0,0.0,0.0025,0.0,0.0,0.0,0.0025,0.02,-0.01,-0.01,0.02,0.0,0.0,0.0,0.02,0.0,0.0,0.0,0.02,-0.641603515625,0.45965625,9.8780128125,0.04,0.0,0.0,0.0,0.04,0.0,0.0,0.0,0.04
1614726812.0080316,3541,1614726812,7658243,base_imu_link,-0.007681586838605255,0.03621271532641125,0.7055619455634331,0.7076807002067192,0.0025,0.0,0.0,0.0,0.0025,0.0,0.0,0.0,0.0025,0.01,-0.01,-0.01,0.02,0.0,0.0,0.0,0.02,0.0,0.0,0.0,0.02,-0.646200078125,0.430927734375,9.8872059375,0.04,0.0,0.0,0.0,0.04,0.0,0.0,0.0,0.04
1614726812.0281167,3542,1614726812,27703285,base_imu_link,-0.007687734942669097,0.036457874872772925,0.7056727671021322,0.7075575367852655,0.0025,0.0,0.0,0.0,0.0025,0.0,0.0,0.0,0.0025,0.01,-0.01,-0.0,0.02,0.0,0.0,0.0,0.02,0.0,0.0,0.0,0.02,-0.63662390625,0.430927734375,9.897165156249999,0.04,0.0,0.0,0.0,0.04,0.0,0.0,0.0,0.04
1614726812.0480843,3543,1614726812,47715425,base_imu_link,-0.007560953614563394,0.03670494502254597,0.7055982499825669,0.70762044106489,0.0025,0.0,0.0,0.0,0.0025,0.0,0.0,0.0,0.0025,0.02,-0.01,-0.0,0.02,0.0,0.0,0.0,0.02,0.0,0.0,0.0,0.02,-0.6270477343749999,0.416755,9.901761718749999,0.04,0.0,0.0,0.0,0.04,0.0,0.0,0.0,0.04
1614726812.0682619,3544,1614726812,67807674,base_imu_link,-0.00749278497063444,0.03676782824367649,0.7054715302587404,0.7077442369769029,0.0025,0.0,0.0,0.0,0.0025,0.0,0.0,0.0,0.0025,0.01,-0.02,-0.0,0.02,0.0,0.0,0.0,0.02,0.0,0.0,0.0,0.02,-0.6320273437499999,0.43590734375,9.873033203124999,0.04,0.0,0.0,0.0,0.04,0.0,0.0,0.0,0.04
1614726812.0884116,3545,1614726812,88012456,base_imu_link,-0.0073629612046345,0.03676899542109995,0.7053479933640976,0.7078686573335925,0.0025,0.0,0.0,0.0,0.0025,0.0,0.0,0.0,0.0025,0.0,-0.02,0.0,0.02,0.0,0.0,0.0,0.02,0.0,0.0,0.0,0.02,-0.6082784375,0.416755,9.78684765625,0.04,0.0,0.0,0.0,0.04,0.0,0.0,0.0,0.04
1614726812.108293,3546,1614726812,107854604,base_imu_link,-0.007294759728427965,0.03683182224202687,0.7052212247366882,0.7079923922837882,0.0025,0.0,0.0,0.0,0.0025,0.0,0.0,0.0,0.0025,0.01,-0.01,-0.0,0.02,0.0,0.0,0.0,0.02,0.0,0.0,0.0,0.02,-0.59372265625,0.41177539062499996,9.76309875,0.04,0.0,0.0,0.0,0.04,0.0,0.0,0.0,0.04
1614726812.1283302,3547,1614726812,127865314,base_imu_link,-0.007297973883485661,0.036831185513905476,0.7052830060429486,0.7079308474263981,0.0025,0.0,0.0,0.0,0.0025,0.0,0.0,0.0,0.0025,0.01,-0.01,-0.0,0.02,0.0,0.0,0.0,0.02,0.0,0.0,0.0,0.02,-0.6032988281249999,0.430927734375,9.82974890625,0.04,0.0,0.0,0.0,0.04,0.0,0.0,0.0,0.04
1614726812.148769,3548,1614726812,148282766,base_imu_link,-0.00705423436115132,0.03695351383091065,0.7053383416745571,0.7078718099747383,0.0025,0.0,0.0,0.0,0.0025,0.0,0.0,0.0,0.0025,0.02,-0.01,0.0,0.02,0.0,0.0,0.0,0.02,0.0,0.0,0.0,0.02,-0.6082784375,0.45008007812499995,9.90635828125,0.04,0.0,0.0,0.0,0.04,0.0,0.0,0.0,0.04
1614726812.1687698,3549,1614726812,168312788,base_imu_link,-0.006804044316969762,0.03707707193617584,0.705270103592193,0.7079357857155051,0.0025,0.0,0.0,0.0,0.0025,0.0,0.0,0.0,0.0025,0.02,-0.02,0.01,0.02,0.0,0.0,0.0,0.02,0.0,0.0,0.0,0.02,-0.58912609375,0.44050390624999997,9.944662968749999,0.04,0.0,0.0,0.0,0.04,0.0,0.0,0.0,0.04
1614726812.1889586,3550,1614726812,188384294,base_imu_link,-0.006430585226161006,0.037077180938196126,0.7052083172874479,0.708000818824337,0.0025,0.0,0.0,0.0,0.0025,0.0,0.0,0.0,0.0025,0.02,-0.03,0.01,0.02,0.0,0.0,0.0,0.02,0.0,0.0,0.0,0.02,-0.6032988281249999,0.44050390624999997,9.873033203124999,0.04,0.0,0.0,0.0,0.04,0.0,0.0,0.0,0.04
1614726812.2090957,3551,1614726812,208558320,base_imu_link,-0.006187004122421251,0.03707631807898992,0.7052700966186304,0.7079414936513061,0.0025,0.0,0.0,0.0,0.0025,0.0,0.0,0.0,0.0025,0.02,-0.03,0.01,0.02,0.0,0.0,0.0,0.02,0.0,0.0,0.0,0.02,-0.59372265625,0.42633117187499997,9.810596562499999,0.04,0.0,0.0,0.0,0.04,0.0,0.0,0.0,0.04
1614726812.2287633,3552,1614726812,228335857,base_imu_link,-0.005995506067530264,0.03701551694406628,0.7051497566984583,0.7080661876127563,0.0025,0.0,0.0,0.0,0.0025,0.0,0.0,0.0,0.0025,0.01,-0.02,0.01,0.02,0.0,0.0,0.0,0.02,0.0,0.0,0.0,0.02,-0.598702265625,0.392623046875,9.815576171875,0.04,0.0,0.0,0.0,0.04,0.0,0.0,0.0,0.04
1614726812.2487805,3553,1614726812,248358488,base_imu_link,-0.006054254448025443,0.036831264065657676,0.7050976285978462,0.7081272047705117,0.0025,0.0,0.0,0.0,0.0025,0.0,0.0,0.0,0.0025,0.01,-0.02,0.0,0.02,0.0,0.0,0.0,0.02,0.0,0.0,0.0,0.02,-0.58912609375,0.388026484375,9.839708125,0.04,0.0,0.0,0.0,0.04,0.0,0.0,0.0,0.04
1614726812.2686489,3554,1614726812,268212795,base_imu_link,-0.006113034989343345,0.03664701920024555,0.70504544682762,0.7081882127616905,0.0025,0.0,0.0,0.0,0.0025,0.0,0.0,0.0,0.0025,0.01,-0.02,-0.0,0.02,0.0,0.0,0.0,0.02,0.0,0.0,0.0,0.02,-0.6032988281249999,0.430927734375,9.820555781249999,0.04,0.0,0.0,0.0,0.04,0.0,0.0,0.0,0.04
1614726812.2890694,3555,1614726812,288581848,base_imu_link,-0.006048030437978852,0.03670907381274178,0.7049804422762553,0.7082502673741867,0.0025,0.0,0.0,0.0,0.0025,0.0,0.0,0.0,0.0025,0.01,-0.01,0.0,0.02,0.0,0.0,0.0,0.02,0.0,0.0,0.0,0.02,-0.622451171875,0.46923242187499997,9.863457031249999,0.04,0.0,0.0,0.0,0.04,0.0,0.0,0.0,0.04
1614726812.3091085,3556,1614726812,308626651,base_imu_link,-0.005862610746427051,0.03689363600083166,0.7049708077040157,0.708251826473481,0.0025,0.0,0.0,0.0,0.0025,0.0,0.0,0.0,0.0025,0.01,-0.03,0.01,0.02,0.0,0.0,0.0,0.02,0.0,0.0,0.0,0.02,-0.622451171875,0.47421203125,9.8872059375,0.04,0.0,0.0,0.0,0.04,0.0,0.0,0.0,0.04
1614726812.3291686,3557,1614726812,328670501,base_imu_link,-0.005748688141056366,0.037015172321004736,0.7051497538112833,0.7080682553981572,0.0025,0.0,0.0,0.0,0.0025,0.0,0.0,0.0,0.0025,0.01,-0.03,0.01,0.02,0.0,0.0,0.0,0.02,0.0,0.0,0.0,0.02,-0.612875,0.430927734375,9.853880859375,0.04,0.0,0.0,0.0,0.04,0.0,0.0,0.0,0.04
1614726812.3492763,3558,1614726812,348706722,base_imu_link,-0.005696743787974974,0.03695197380604564,0.705338327697351,0.7078841305066498,0.0025,0.0,0.0,0.0,0.0025,0.0,0.0,0.0,0.0025,0.01,-0.02,0.01,0.02,0.0,0.0,0.0,0.02,0.0,0.0,0.0,0.02,-0.598702265625,0.41177539062499996,9.858860468749999,0.04,0.0,0.0,0.0,0.04,0.0,0.0,0.0,0.04
1614726812.3692255,3559,1614726812,368716001,base_imu_link,-0.005696883605423435,0.03682872847893427,0.7053447651420018,0.707884137809702,0.0025,0.0,0.0,0.0,0.0025,0.0,0.0,0.0,0.0025,0.01,-0.02,0.0,0.02,0.0,0.0,0.0,0.02,0.0,0.0,0.0,0.02,-0.6032988281249999,0.40219921875,9.8780128125,0.04,0.0,0.0,0.0,0.04,0.0,0.0,0.0,0.04
1614726812.3891363,3560,1614726812,388744115,base_imu_link,-0.0057524022879542076,0.03664493292973235,0.7052308218021419,0.7080067420150523,0.0025,0.0,0.0,0.0,0.0025,0.0,0.0,0.0,0.0025,0.0,-0.02,0.01,0.02,0.0,0.0,0.0,0.02,0.0,0.0,0.0,0.02,-0.6082784375,0.4550596875,9.8872059375,0.04,0.0,0.0,0.0,0.04,0.0,0.0,0.0,0.04
1614726812.409203,3561,1614726812,408792257,base_imu_link,-0.005628993043236892,0.036644771387316505,0.70523082049107,0.7080077435994486,0.0025,0.0,0.0,0.0,0.0025,0.0,0.0,0.0,0.0025,0.0,-0.03,0.02,0.02,0.0,0.0,0.0,0.02,0.0,0.0,0.0,0.02,-0.58912609375,0.4550596875,9.882609375,0.04,0.0,0.0,0.0,0.04,0.0,0.0,0.0,0.04
1614726812.4293714,3562,1614726812,428988933,base_imu_link,-0.005450204537160171,0.03670520202288867,0.7053511788525332,0.7078861051795718,0.0025,0.0,0.0,0.0,0.0025,0.0,0.0,0.0,0.0025,0.01,-0.02,0.02,0.02,0.0,0.0,0.0,0.02,0.0,0.0,0.0,0.02,-0.560397578125,0.45008007812499995,9.86805359375,0.04,0.0,0.0,0.0,0.04,0.0,0.0,0.0,0.04
1614726812.4494545,3563,1614726812,449017763,base_imu_link,-0.005138702732335632,0.036520428820125114,0.7052989821728948,0.7079499966515301,0.0025,0.0,0.0,0.0,0.0025,0.0,0.0,0.0,0.0025,0.01,-0.03,0.02,0.02,0.0,0.0,0.0,0.02,0.0,0.0,0.0,0.02,-0.55082140625,0.45008007812499995,9.815576171875,0.04,0.0,0.0,0.0,0.04,0.0,0.0,0.0,0.04
1614726812.4695308,3564,1614726812,469069004,base_imu_link,-0.0049016798093383,0.03627234570209572,0.705496999986321,0.7077671039845067,0.0025,0.0,0.0,0.0,0.0025,0.0,0.0,0.0,0.0025,0.0,-0.03,0.02,0.02,0.0,0.0,0.0,0.02,0.0,0.0,0.0,0.02,-0.5554179687499999,0.41177539062499996,9.782251093749998,0.04,0.0,0.0,0.0,0.04,0.0,0.0,0.0,0.04
1614726812.4892867,3565,1614726812,488898515,base_imu_link,-0.004849599580721422,0.03608614046215635,0.7056917391418589,0.707582815758969,0.0025,0.0,0.0,0.0,0.0025,0.0,0.0,0.0,0.0025,0.0,-0.02,0.02,0.02,0.0,0.0,0.0,0.02,0.0,0.0,0.0,0.02,-0.560397578125,0.41177539062499996,9.8014034375,0.04,0.0,0.0,0.0,0.04,0.0,0.0,0.0,0.04
1614726812.5094063,3566,1614726812,508985757,base_imu_link,-0.004794289278402053,0.03590038103437787,0.7058246469090738,0.7074600661857763,0.0025,0.0,0.0,0.0,0.0025,0.0,0.0,0.0,0.0025,0.01,-0.02,0.02,0.02,0.0,0.0,0.0,0.02,0.0,0.0,0.0,0.02,-0.55082140625,0.407178828125,9.839708125,0.04,0.0,0.0,0.0,0.04,0.0,0.0,0.0,0.04
1614726812.5294907,3567,1614726812,529111623,base_imu_link,-0.004797529719995926,0.035653451808840254,0.705898869452583,0.7073984741206796,0.0025,0.0,0.0,0.0,0.0025,0.0,0.0,0.0,0.0025,0.01,-0.02,0.02,0.02,0.0,0.0,0.0,0.02,0.0,0.0,0.0,0.02,-0.536265625,0.41177539062499996,9.882609375,0.04,0.0,0.0,0.0,0.04,0.0,0.0,0.0,0.04
1614726812.5496144,3568,1614726812,549167633,base_imu_link,-0.004621801394774999,0.0353440177727505,0.706099530142992,0.7072148845233623,0.0025,0.0,0.0,0.0,0.0025,0.0,0.0,0.0,0.0025,0.0,-0.03,0.02,0.02,0.0,0.0,0.0,0.02,0.0,0.0,0.0,0.02,-0.55082140625,0.42633117187499997,9.882609375,0.04,0.0,0.0,0.0,0.04,0.0,0.0,0.0,0.04
1614726812.569976,3569,1614726812,569514036,base_imu_link,-0.004501496396516008,0.03509708307780225,0.7061735376080047,0.7071540610587045,0.0025,0.0,0.0,0.0,0.0025,0.0,0.0,0.0,0.0025,-0.0,-0.04,0.01,0.02,0.0,0.0,0.0,0.02,0.0,0.0,0.0,0.02,-0.55082140625,0.40219921875,9.863457031249999,0.04,0.0,0.0,0.0,0.04,0.0,0.0,0.0,0.04
1614726812.5900393,3570,1614726812,589595079,base_imu_link,-0.004495467541865094,0.03472807951120316,0.7060683849594563,0.7072773056063573,0.0025,0.0,0.0,0.0,0.0025,0.0,0.0,0.0,0.0025,-0.0,-0.03,0.01,0.02,0.0,0.0,0.0,0.02,0.0,0.0,0.0,0.02,-0.560397578125,0.40219921875,9.820555781249999,0.04,0.0,0.0,0.0,0.04,0.0,0.0,0.0,0.04
1614726812.6098607,3571,1614726812,609430551,base_imu_link,-0.004551192389323902,0.03454399260246334,0.7059539984793034,0.7074001351809315,0.0025,0.0,0.0,0.0,0.0025,0.0,0.0,0.0,0.0025,0.0,-0.03,0.01,0.02,0.0,0.0,0.0,0.02,0.0,0.0,0.0,0.02,-0.560397578125,0.407178828125,9.79144421875,0.04,0.0,0.0,0.0,0.04,0.0,0.0,0.0,0.04
1614726812.6299436,3572,1614726812,629513978,base_imu_link,-0.0046189429208260396,0.03448158073037164,0.7060804641153885,0.7072765118051261,0.0025,0.0,0.0,0.0,0.0025,0.0,0.0,0.0,0.0025,0.0,-0.02,0.01,0.02,0.0,0.0,0.0,0.02,0.0,0.0,0.0,0.02,-0.5554179687499999,0.41177539062499996,9.79144421875,0.04,0.0,0.0,0.0,0.04,0.0,0.0,0.0,0.04
1614726812.649876,3573,1614726812,649442672,base_imu_link,-0.004615933817667036,0.03448198367788466,0.7060187399076465,0.7073381262563528,0.0025,0.0,0.0,0.0,0.0025,0.0,0.0,0.0,0.0025,0.01,-0.02,0.0,0.02,0.0,0.0,0.0,0.02,0.0,0.0,0.0,0.02,-0.55082140625,0.41177539062499996,9.8014034375,0.04,0.0,0.0,0.0,0.04,0.0,0.0,0.0,0.04
1614726812.6697721,3574,1614726812,669335365,base_imu_link,-0.0046189429208260396,0.03448158073037164,0.7060804641153885,0.7072765118051261,0.0025,0.0,0.0,0.0,0.0025,0.0,0.0,0.0,0.0025,0.01,-0.02,-0.0,0.02,0.0,0.0,0.0,0.02,0.0,0.0,0.0,0.02,-0.536265625,0.388026484375,9.810596562499999,0.04,0.0,0.0,0.0,0.04,0.0,0.0,0.0,0.04
1614726812.689741,3575,1614726812,689173460,base_imu_link,-0.004739430567724953,0.034235491471873776,0.7060307330840072,0.7073373119399489,0.0025,0.0,0.0,0.0,0.0025,0.0,0.0,0.0,0.0025,0.0,-0.02,-0.01,0.02,0.0,0.0,0.0,0.02,0.0,0.0,0.0,0.02,-0.5266894531249999,0.368874140625,9.8014034375,0.04,0.0,0.0,0.0,0.04,0.0,0.0,0.0,0.04
1614726812.709956,3576,1614726812,709519147,base_imu_link,-0.004792285810959279,0.034051864593096795,0.7058544668620558,0.707521714242978,0.0025,0.0,0.0,0.0,0.0025,0.0,0.0,0.0,0.0025,0.01,-0.01,-0.02,0.02,0.0,0.0,0.0,0.02,0.0,0.0,0.0,0.02,-0.5316690625,0.40219921875,9.79144421875,0.04,0.0,0.0,0.0,0.04,0.0,0.0,0.0,0.04
1614726812.7299845,3577,1614726812,729537010,base_imu_link,-0.00477742742639913,0.03405395238068571,0.7055456850934158,0.7078296339942981,0.0025,0.0,0.0,0.0,0.0025,0.0,0.0,0.0,0.0025,0.01,-0.01,-0.02,0.02,0.0,0.0,0.0,0.02,0.0,0.0,0.0,0.02,-0.536265625,0.4550596875,9.767695312499999,0.04,0.0,0.0,0.0,0.04,0.0,0.0,0.0,0.04
1614726812.7499835,3578,1614726812,749515056,base_imu_link,-0.004588990152219497,0.03436233134121075,0.7054689873445384,0.7078924206750988,0.0025,0.0,0.0,0.0,0.0025,0.0,0.0,0.0,0.0025,0.01,-0.0,-0.01,0.02,0.0,0.0,0.0,0.02,0.0,0.0,0.0,0.02,-0.5412452343749999,0.4550596875,9.758119140624999,0.04,0.0,0.0,0.0,0.04,0.0,0.0,0.0,0.04
1614726812.7702284,3579,1614726812,769809484,base_imu_link,-0.004526935185576949,0.03467042698595613,0.705453928553213,0.7078928047658594,0.0025,0.0,0.0,0.0,0.0025,0.0,0.0,0.0,0.0025,0.02,0.0,-0.01,0.02,0.0,0.0,0.0,0.02,0.0,0.0,0.0,0.02,-0.55082140625,0.464635859375,9.806,0.04,0.0,0.0,0.0,0.04,0.0,0.0,0.0,0.04
1614726812.790264,3580,1614726812,789824247,base_imu_link,-0.004393931219213306,0.03504122856996705,0.7052503298932329,0.708078228626071,0.0025,0.0,0.0,0.0,0.0025,0.0,0.0,0.0,0.0025,0.02,0.0,-0.01,0.02,0.0,0.0,0.0,0.02,0.0,0.0,0.0,0.02,-0.560397578125,0.464635859375,9.82974890625,0.04,0.0,0.0,0.0,0.04,0.0,0.0,0.0,0.04
1614726812.81033,3581,1614726812,809876441,base_imu_link,-0.004377963522981344,0.03541292252024895,0.7049228642649205,0.7083858509248381,0.0025,0.0,0.0,0.0,0.0025,0.0,0.0,0.0,0.0025,0.02,0.0,-0.01,0.02,0.0,0.0,0.0,0.02,0.0,0.0,0.0,0.02,-0.55082140625,0.43590734375,9.834728515624999,0.04,0.0,0.0,0.0,0.04,0.0,0.0,0.0,0.04
1614726812.8303459,3582,1614726812,829905986,base_imu_link,-0.004374636507458124,0.035536562286587955,0.7048548531982859,0.7084473524681293,0.0025,0.0,0.0,0.0,0.0025,0.0,0.0,0.0,0.0025,0.01,0.0,-0.02,0.02,0.0,0.0,0.0,0.02,0.0,0.0,0.0,0.02,-0.56997375,0.4979609375,9.806,0.04,0.0,0.0,0.0,0.04,0.0,0.0,0.0,0.04
1614726812.8505287,3583,1614726812,850085258,base_imu_link,-0.004364257302289329,0.03603072662838222,0.7046443826321612,0.708631804269164,0.0025,0.0,0.0,0.0,0.0025,0.0,0.0,0.0,0.0025,0.01,0.01,-0.01,0.02,0.0,0.0,0.0,0.02,0.0,0.0,0.0,0.02,-0.58912609375,0.483788203125,9.834728515624999,0.04,0.0,0.0,0.0,0.04,0.0,0.0,0.0,0.04
1614726812.8705456,3584,1614726812,870107889,base_imu_link,-0.004415475561275299,0.036463396820888644,0.7044367043261832,0.708815810959318,0.0025,0.0,0.0,0.0,0.0025,0.0,0.0,0.0,0.0025,0.01,0.01,-0.01,0.02,0.0,0.0,0.0,0.02,0.0,0.0,0.0,0.02,-0.579549921875,0.42135156249999994,9.949642578125,0.04,0.0,0.0,0.0,0.04,0.0,0.0,0.0,0.04
1614726812.890409,3585,1614726812,889965772,base_imu_link,-0.004597565085031435,0.03640262588376556,0.7043780272228626,0.708876086484573,0.0025,0.0,0.0,0.0,0.0025,0.0,0.0,0.0,0.0025,0.01,-0.0,-0.01,0.02,0.0,0.0,0.0,0.02,0.0,0.0,0.0,0.02,-0.59372265625,0.43590734375,9.954622187499998,0.04,0.0,0.0,0.0,0.04,0.0,0.0,0.0,0.04
1614726812.9104862,3586,1614726812,910029411,base_imu_link,-0.0047796649268331826,0.036341886727437156,0.7043193397131512,0.7089363086895101,0.0025,0.0,0.0,0.0,0.0025,0.0,0.0,0.0,0.0025,0.0,-0.01,-0.01,0.02,0.0,0.0,0.0,0.02,0.0,0.0,0.0,0.02,-0.6032988281249999,0.4550596875,9.853880859375,0.04,0.0,0.0,0.0,0.04,0.0,0.0,0.0,0.04
1614726812.9304914,3587,1614726812,930054664,base_imu_link,-0.004889657413290557,0.036590416642365065,0.7040591096430094,0.7091812199917674,0.0025,0.0,0.0,0.0,0.0025,0.0,0.0,0.0,0.0025,0.01,-0.01,-0.0,0.02,0.0,0.0,0.0,0.02,0.0,0.0,0.0,0.02,-0.6082784375,0.44050390624999997,9.834728515624999,0.04,0.0,0.0,0.0,0.04,0.0,0.0,0.0,0.04
1614726812.9504151,3588,1614726812,950006723,base_imu_link,-0.005061794604793193,0.036654358713752666,0.7038083257208352,0.7094255964290387,0.0025,0.0,0.0,0.0,0.0025,0.0,0.0,0.0,0.0025,0.0,-0.0,-0.0,0.02,0.0,0.0,0.0,0.02,0.0,0.0,0.0,0.02,-0.579549921875,0.42633117187499997,9.806,0.04,0.0,0.0,0.0,0.04,0.0,0.0,0.0,0.04
1614726812.9710503,3589,1614726812,970591306,base_imu_link,-0.005305414337403603,0.03665564032227751,0.7037464202831538,0.7094851602041574,0.0025,0.0,0.0,0.0,0.0025,0.0,0.0,0.0,0.0025,-0.0,0.0,-0.0,0.02,0.0,0.0,0.0,0.02,0.0,0.0,0.0,0.02,-0.56997375,0.407178828125,9.796423828124999,0.04,0.0,0.0,0.0,0.04,0.0,0.0,0.0,0.04
1614726812.99109,3590,1614726812,990620136,base_imu_link,-0.005552651585011094,0.03653323285345198,0.7037528105160561,0.7094832433880333,0.0025,0.0,0.0,0.0,0.0025,0.0,0.0,0.0,0.0025,-0.0,0.01,-0.0,0.02,0.0,0.0,0.0,0.02,0.0,0.0,0.0,0.02,-0.5745703124999999,0.416755,9.815576171875,0.04,0.0,0.0,0.0,0.04,0.0,0.0,0.0,0.04
1614726813.011047,3591,1614726813,10614871,base_imu_link,-0.005747135220812686,0.03659398340935237,0.7039353442891872,0.7092974565550431,0.0025,0.0,0.0,0.0,0.0025,0.0,0.0,0.0,0.0025,0.01,0.01,0.0,0.02,0.0,0.0,0.0,0.02,0.0,0.0,0.0,0.02,-0.56997375,0.43590734375,9.834728515624999,0.04,0.0,0.0,0.0,0.04,0.0,0.0,0.0,0.04
1614726813.0310414,3592,1614726813,30639886,base_imu_link,-0.005801839449132873,0.036780060569560985,0.703801939858476,0.7094197595605526,0.0025,0.0,0.0,0.0,0.0025,0.0,0.0,0.0,0.0025,0.01,0.01,0.01,0.02,0.0,0.0,0.0,0.02,0.0,0.0,0.0,0.02,-0.5745703124999999,0.45008007812499995,9.882609375,0.04,0.0,0.0,0.0,0.04,0.0,0.0,0.0,0.04
1614726813.0513182,3593,1614726813,50885200,base_imu_link,-0.005808258692293429,0.03677904739736317,0.7039257462441612,0.7092969121447708,0.0025,0.0,0.0,0.0,0.0025,0.0,0.0,0.0,0.0025,-0.0,0.01,0.01,0.02,0.0,0.0,0.0,0.02,0.0,0.0,0.0,0.02,-0.560397578125,0.407178828125,9.935469843749999,0.04,0.0,0.0,0.0,0.04,0.0,0.0,0.0,0.04
1614726813.0709505,3594,1614726813,70542573,base_imu_link,-0.005932054268111636,0.036656188618194814,0.7039321546774546,0.7092958876091865,0.0025,0.0,0.0,0.0,0.0025,0.0,0.0,0.0,0.0025,0.01,0.0,0.01,0.02,0.0,0.0,0.0,0.02,0.0,0.0,0.0,0.02,-0.55082140625,0.36389453125,9.944662968749999,0.04,0.0,0.0,0.0,0.04,0.0,0.0,0.0,0.04
1614726813.0910418,3595,1614726813,90578794,base_imu_link,-0.005930049251559473,0.03628696013165518,0.7038893406382097,0.7093573762048182,0.0025,0.0,0.0,0.0,0.0025,0.0,0.0,0.0,0.0025,0.01,-0.01,0.0,0.02,0.0,0.0,0.0,0.02,0.0,0.0,0.0,0.02,-0.58912609375,0.44050390624999997,9.930490234374998,0.04,0.0,0.0,0.0,0.04,0.0,0.0,0.0,0.04
1614726813.1112165,3596,1614726813,110784769,base_imu_link,-0.00585545778262348,0.036350432081129654,0.7036385158297253,0.7096035504016397,0.0025,0.0,0.0,0.0,0.0025,0.0,0.0,0.0,0.0025,0.01,-0.01,0.01,0.02,0.0,0.0,0.0,0.02,0.0,0.0,0.0,0.02,-0.59372265625,0.4550596875,9.86805359375,0.04,0.0,0.0,0.0,0.04,0.0,0.0,0.0,0.04
1614726813.131223,3597,1614726813,130789041,base_imu_link,-0.005793092192851004,0.03653508451381364,0.7036289788563113,0.7096040359214696,0.0025,0.0,0.0,0.0,0.0025,0.0,0.0,0.0,0.0025,0.01,-0.01,0.01,0.02,0.0,0.0,0.0,0.02,0.0,0.0,0.0,0.02,-0.58912609375,0.45008007812499995,9.8443046875,0.04,0.0,0.0,0.0,0.04,0.0,0.0,0.0,0.04
1614726813.1512868,3598,1614726813,150871753,base_imu_link,-0.005737135282269441,0.03671873368397399,0.7037432321373253,0.7094817003251804,0.0025,0.0,0.0,0.0,0.0025,0.0,0.0,0.0,0.0025,0.01,-0.0,0.02,0.02,0.0,0.0,0.0,0.02,0.0,0.0,0.0,0.02,-0.5841464843749999,0.44050390624999997,9.834728515624999,0.04,0.0,0.0,0.0,0.04,0.0,0.0,0.0,0.04
1614726813.1713004,3599,1614726813,170856237,base_imu_link,-0.0056748018487000965,0.03690339198046989,0.7037335984873163,0.7094821764106598,0.0025,0.0,0.0,0.0,0.0025,0.0,0.0,0.0,0.0025,0.01,-0.0,0.02,0.02,0.0,0.0,0.0,0.02,0.0,0.0,0.0,0.02,-0.59372265625,0.42633117187499997,9.858860468749999,0.04,0.0,0.0,0.0,0.04,0.0,0.0,0.0,0.04
1614726813.1911356,3600,1614726813,190723896,base_imu_link,-0.0056748018487000965,0.03690339198046989,0.7037335984873163,0.7094821764106598,0.0025,0.0,0.0,0.0,0.0025,0.0,0.0,0.0,0.0025,0.01,-0.01,0.01,0.02,0.0,0.0,0.0,0.02,0.0,0.0,0.0,0.02,-0.579549921875,0.37347070312499997,9.848901249999999,0.04,0.0,0.0,0.0,0.04,0.0,0.0,0.0,0.04
1614726813.2113147,3601,1614726813,210896492,base_imu_link,-0.00592565646596757,0.03665722339866773,0.703808348470487,0.7094187361434663,0.0025,0.0,0.0,0.0,0.0025,0.0,0.0,0.0,0.0025,0.01,-0.01,0.01,0.02,0.0,0.0,0.0,0.02,0.0,0.0,0.0,0.02,-0.598702265625,0.407178828125,9.848901249999999,0.04,0.0,0.0,0.0,0.04,0.0,0.0,0.0,0.04
1614726813.231272,3602,1614726813,230885028,base_imu_link,-0.005935629541063907,0.03653242318055723,0.704000433382502,0.7092344747372038,0.0025,0.0,0.0,0.0,0.0025,0.0,0.0,0.0,0.0025,0.01,-0.02,0.01,0.02,0.0,0.0,0.0,0.02,0.0,0.0,0.0,0.02,-0.6174715625,0.416755,9.820555781249999,0.04,0.0,0.0,0.0,0.04,0.0,0.0,0.0,0.04
1614726813.251548,3603,1614726813,251174926,base_imu_link,-0.006059037774530726,0.03653280011072901,0.704000436639026,0.7092334085400781,0.0025,0.0,0.0,0.0,0.0025,0.0,0.0,0.0,0.0025,0.0,-0.02,0.01,0.02,0.0,0.0,0.0,0.02,0.0,0.0,0.0,0.02,-0.6174715625,0.392623046875,9.78684765625,0.04,0.0,0.0,0.0,0.04,0.0,0.0,0.0,0.04
1614726813.2715287,3604,1614726813,271178960,base_imu_link,-0.006305853673806797,0.03653355396933875,0.7040004433494337,0.7092312115295089,0.0025,0.0,0.0,0.0,0.0025,0.0,0.0,0.0,0.0025,0.01,-0.01,0.0,0.02,0.0,0.0,0.0,0.02,0.0,0.0,0.0,0.02,-0.6270477343749999,0.38304687499999995,9.810596562499999,0.04,0.0,0.0,0.0,0.04,0.0,0.0,0.0,0.04
1614726813.2916565,3605,1614726813,291235923,base_imu_link,-0.006552292351513819,0.03665755545423008,0.7039940666805348,0.7092289088662864,0.0025,0.0,0.0,0.0,0.0025,0.0,0.0,0.0,0.0025,0.01,-0.01,0.01,0.02,0.0,0.0,0.0,0.02,0.0,0.0,0.0,0.02,-0.63662390625,0.38304687499999995,9.82974890625,0.04,0.0,0.0,0.0,0.04,0.0,0.0,0.0,0.04
1614726813.3116956,3606,1614726813,311229705,base_imu_link,-0.006876643406043511,0.03671712416064888,0.7043002670428512,0.7089186825103471,0.0025,0.0,0.0,0.0,0.0025,0.0,0.0,0.0,0.0025,0.01,-0.0,0.01,0.02,0.0,0.0,0.0,0.02,0.0,0.0,0.0,0.02,-0.63662390625,0.38304687499999995,9.825152343749998,0.04,0.0,0.0,0.0,0.04,0.0,0.0,0.0,0.04
1614726813.331475,3607,1614726813,331077337,base_imu_link,-0.00711670422238788,0.03684225908456714,0.7041701176688363,0.7090391003666963,0.0025,0.0,0.0,0.0,0.0025,0.0,0.0,0.0,0.0025,0.01,-0.0,0.0,0.02,0.0,0.0,0.0,0.02,0.0,0.0,0.0,0.02,-0.63662390625,0.368874140625,9.79144421875,0.04,0.0,0.0,0.0,0.04,0.0,0.0,0.0,0.04
1614726813.3515477,3608,1614726813,351107597,base_imu_link,-0.007415385801220985,0.036906685836357686,0.7039812613435086,0.7092202001291267,0.0025,0.0,0.0,0.0,0.0025,0.0,0.0,0.0,0.0025,0.01,-0.0,-0.0,0.02,0.0,0.0,0.0,0.02,0.0,0.0,0.0,0.02,-0.65577625,0.416755,9.78684765625,0.04,0.0,0.0,0.0,0.04,0.0,0.0,0.0,0.04
1614726813.3719442,3609,1614726813,371510028,base_imu_link,-0.007651717034569823,0.037155931580141674,0.7037826548162152,0.7094017639917982,0.0025,0.0,0.0,0.0,0.0025,0.0,0.0,0.0,0.0025,0.01,0.0,0.0,0.02,0.0,0.0,0.0,0.02,0.0,0.0,0.0,0.02,-0.6607558593749999,0.43590734375,9.79144421875,0.04,0.0,0.0,0.0,0.04,0.0,0.0,0.0,0.04
1614726813.3921793,3610,1614726813,391762971,base_imu_link,-0.007783720175225649,0.03752402663782574,0.703948817710454,0.7092160624021229,0.0025,0.0,0.0,0.0,0.0025,0.0,0.0,0.0,0.0025,0.0,0.0,0.01,0.02,0.0,0.0,0.0,0.02,0.0,0.0,0.0,0.02,-0.6511796875,0.42633117187499997,9.815576171875,0.04,0.0,0.0,0.0,0.04,0.0,0.0,0.0,0.04
1614726813.412153,3611,1614726813,411765336,base_imu_link,-0.007981425591298826,0.037706665735636156,0.7041865019264406,0.7089681760906019,0.0025,0.0,0.0,0.0,0.0025,0.0,0.0,0.0,0.0025,0.01,0.01,0.01,0.02,0.0,0.0,0.0,0.02,0.0,0.0,0.0,0.02,-0.6270477343749999,0.388026484375,9.839708125,0.04,0.0,0.0,0.0,0.04,0.0,0.0,0.0,0.04
1614726813.4317849,3612,1614726813,431404113,base_imu_link,-0.00815977394506448,0.03777020986721254,0.7040594677700854,0.7090889190919968,0.0025,0.0,0.0,0.0,0.0025,0.0,0.0,0.0,0.0025,0.01,0.01,-0.0,0.02,0.0,0.0,0.0,0.02,0.0,0.0,0.0,0.02,-0.6320273437499999,0.3784503125,9.848901249999999,0.04,0.0,0.0,0.0,0.04,0.0,0.0,0.0,0.04
1614726813.452065,3613,1614726813,451647520,base_imu_link,-0.00835163916367253,0.037707667262174255,0.7041865136385315,0.7089638467245954,0.0025,0.0,0.0,0.0,0.0025,0.0,0.0,0.0,0.0025,0.01,0.01,-0.0,0.02,0.0,0.0,0.0,0.02,0.0,0.0,0.0,0.02,-0.6320273437499999,0.388026484375,9.8443046875,0.04,0.0,0.0,0.0,0.04,0.0,0.0,0.0,0.04
1614726813.4720285,3614,1614726813,471639633,base_imu_link,-0.008464805303523748,0.03783345547898998,0.7039942996295427,0.7091466722807083,0.0025,0.0,0.0,0.0,0.0025,0.0,0.0,0.0,0.0025,0.01,0.0,-0.01,0.02,0.0,0.0,0.0,0.02,0.0,0.0,0.0,0.02,-0.641603515625,0.44050390624999997,9.90635828125,0.04,0.0,0.0,0.0,0.04,0.0,0.0,0.0,0.04
1614726813.491908,3615,1614726813,491487741,base_imu_link,-0.00833109850371712,0.03795850746384836,0.7038020070517038,0.7093324181079219,0.0025,0.0,0.0,0.0,0.0025,0.0,0.0,0.0,0.0025,0.01,-0.0,-0.0,0.02,0.0,0.0,0.0,0.02,0.0,0.0,0.0,0.02,-0.641603515625,0.45965625,9.897165156249999,0.04,0.0,0.0,0.0,0.04,0.0,0.0,0.0,0.04
1614726813.5121505,3616,1614726813,511723041,base_imu_link,-0.008083494277443551,0.0382041783923987,0.7037887141552153,0.7093352829948452,0.0025,0.0,0.0,0.0,0.0025,0.0,0.0,0.0,0.0025,0.01,-0.01,0.0,0.02,0.0,0.0,0.0,0.02,0.0,0.0,0.0,0.02,-0.6174715625,0.430927734375,9.873033203124999,0.04,0.0,0.0,0.0,0.04,0.0,0.0,0.0,0.04
1614726813.5321538,3617,1614726813,531738042,base_imu_link,-0.007953002346327875,0.03832840075742752,0.7036582222240996,0.709459505359874,0.0025,0.0,0.0,0.0,0.0025,0.0,0.0,0.0,0.0025,0.02,-0.0,-0.0,0.02,0.0,0.0,0.0,0.02,0.0,0.0,0.0,0.02,-0.612875,0.41177539062499996,9.839708125,0.04,0.0,0.0,0.0,0.04,0.0,0.0,0.0,0.04
1614726813.552168,3618,1614726813,551747560,base_imu_link,-0.007813346285472459,0.03820816150695598,0.7033552637696565,0.709767892301137,0.0025,0.0,0.0,0.0,0.0025,0.0,0.0,0.0,0.0025,0.01,-0.01,-0.01,0.02,0.0,0.0,0.0,0.02,0.0,0.0,0.0,0.02,-0.6270477343749999,0.44050390624999997,9.82974890625,0.04,0.0,0.0,0.0,0.04,0.0,0.0,0.0,0.04
1614726813.5721636,3619,1614726813,571745395,base_imu_link,-0.007731368376294991,0.03827359406850425,0.7029801964484413,0.7101367483389521,0.0025,0.0,0.0,0.0,0.0025,0.0,0.0,0.0,0.0025,0.01,-0.01,-0.0,0.02,0.0,0.0,0.0,0.02,0.0,0.0,0.0,0.02,-0.646200078125,0.464635859375,9.858860468749999,0.04,0.0,0.0,0.0,0.04,0.0,0.0,0.0,0.04
1614726813.5924902,3620,1614726813,592007160,base_imu_link,-0.007678927589827533,0.038456161977551015,0.7031560477169204,0.7099533296183252,0.0025,0.0,0.0,0.0,0.0025,0.0,0.0,0.0,0.0025,0.01,-0.01,0.01,0.02,0.0,0.0,0.0,0.02,0.0,0.0,0.0,0.02,-0.6270477343749999,0.42135156249999994,9.897165156249999,0.04,0.0,0.0,0.0,0.04,0.0,0.0,0.0,0.04
1614726813.6124496,3621,1614726813,612034320,base_imu_link,-0.007556028109597303,0.03833242520948739,0.703162737654018,0.7099547140428553,0.0025,0.0,0.0,0.0,0.0025,0.0,0.0,0.0,0.0025,0.01,-0.01,0.0,0.02,0.0,0.0,0.0,0.02,0.0,0.0,0.0,0.02,-0.6032988281249999,0.40219921875,9.882609375,0.04,0.0,0.0,0.0,0.04,0.0,0.0,0.0,0.04
1614726813.6323292,3622,1614726813,631919860,base_imu_link,-0.007498907373638397,0.03802343623655543,0.7032413321870402,0.7098940860359124,0.0025,0.0,0.0,0.0,0.0025,0.0,0.0,0.0,0.0025,0.01,-0.02,-0.0,0.02,0.0,0.0,0.0,0.02,0.0,0.0,0.0,0.02,-0.622451171875,0.43590734375,9.858860468749999,0.04,0.0,0.0,0.0,0.04,0.0,0.0,0.0,0.04
1614726813.6526217,3623,1614726813,652176380,base_imu_link,-0.007375502062549215,0.038022940853226134,0.7032413268695028,0.7098954106916163,0.0025,0.0,0.0,0.0,0.0025,0.0,0.0,0.0,0.0025,0.0,-0.02,0.0,0.02,0.0,0.0,0.0,0.02,0.0,0.0,0.0,0.02,-0.65577625,0.430927734375,9.8443046875,0.04,0.0,0.0,0.0,0.04,0.0,0.0,0.0,0.04
1614726813.6727204,3624,1614726813,672275543,base_imu_link,-0.007430310233711674,0.038086102888967056,0.7031141006230645,0.7100174651102471,0.0025,0.0,0.0,0.0,0.0025,0.0,0.0,0.0,0.0025,0.01,-0.01,0.01,0.02,0.0,0.0,0.0,0.02,0.0,0.0,0.0,0.02,-0.665352421875,0.43590734375,9.82974890625,0.04,0.0,0.0,0.0,0.04,0.0,0.0,0.0,0.04
1614726813.6928048,3625,1614726813,692293405,base_imu_link,-0.0074297940339193,0.03820933579108404,0.7031074481387348,0.7100174372442228,0.0025,0.0,0.0,0.0,0.0025,0.0,0.0,0.0,0.0025,0.01,-0.01,0.02,0.02,0.0,0.0,0.0,0.02,0.0,0.0,0.0,0.02,-0.665352421875,0.445483515625,9.810596562499999,0.04,0.0,0.0,0.0,0.04,0.0,0.0,0.0,0.04
1614726813.712741,3626,1614726813,712327957,base_imu_link,-0.007500773710286179,0.038392479040978075,0.7032832897186815,0.7098326354495857,0.0025,0.0,0.0,0.0,0.0025,0.0,0.0,0.0,0.0025,0.01,-0.01,0.03,0.02,0.0,0.0,0.0,0.02,0.0,0.0,0.0,0.02,-0.65577625,0.43590734375,9.8014034375,0.04,0.0,0.0,0.0,0.04,0.0,0.0,0.0,0.04
1614726813.7328265,3627,1614726813,732397556,base_imu_link,-0.007513733845809145,0.03851308871809517,0.7035243189296151,0.7095870760348639,0.0025,0.0,0.0,0.0,0.0025,0.0,0.0,0.0,0.0025,0.01,-0.01,0.03,0.02,0.0,0.0,0.0,0.02,0.0,0.0,0.0,0.02,-0.6607558593749999,0.4550596875,9.86805359375,0.04,0.0,0.0,0.0,0.04,0.0,0.0,0.0,0.04
1614726813.7528055,3628,1614726813,752348184,base_imu_link,-0.007451810663245526,0.03857448265003613,0.7035209553497811,0.7095877290299294,0.0025,0.0,0.0,0.0,0.0025,0.0,0.0,0.0,0.0025,0.0,-0.02,0.03,0.02,0.0,0.0,0.0,0.02,0.0,0.0,0.0,0.02,-0.665352421875,0.430927734375,9.863457031249999,0.04,0.0,0.0,0.0,0.04,0.0,0.0,0.0,0.04
1614726813.7731686,3629,1614726813,772737264,base_imu_link,-0.0075752160626710325,0.038574924187179865,0.7035209601278593,0.7095863936028736,0.0025,0.0,0.0,0.0,0.0025,0.0,0.0,0.0,0.0025,-0.0,-0.02,0.02,0.02,0.0,0.0,0.0,0.02,0.0,0.0,0.0,0.02,-0.6607558593749999,0.42135156249999994,9.839708125,0.04,0.0,0.0,0.0,0.04,0.0,0.0,0.0,0.04
1614726813.7931452,3630,1614726813,792753219,base_imu_link,-0.0077124839938587705,0.0384494462069082,0.7037753310531922,0.7093394399566376,0.0025,0.0,0.0,0.0,0.0025,0.0,0.0,0.0,0.0025,-0.0,-0.01,0.02,0.02,0.0,0.0,0.0,0.02,0.0,0.0,0.0,0.02,-0.665352421875,0.416755,9.82974890625,0.04,0.0,0.0,0.0,0.04,0.0,0.0,0.0,0.04
1614726813.8131313,3631,1614726813,812785863,base_imu_link,-0.007894440407284141,0.038389117601625805,0.7037167841631434,0.7093987885156756,0.0025,0.0,0.0,0.0,0.0025,0.0,0.0,0.0,0.0025,-0.01,-0.02,0.01,0.02,0.0,0.0,0.0,0.02,0.0,0.0,0.0,0.02,-0.6607558593749999,0.43590734375,9.820555781249999,0.04,0.0,0.0,0.0,0.04,0.0,0.0,0.0,0.04
1614726813.833434,3632,1614726813,832977294,base_imu_link,-0.007956347099992054,0.03832770658110286,0.7037201315660796,0.7093980968945975,0.0025,0.0,0.0,0.0,0.0025,0.0,0.0,0.0,0.0025,-0.01,-0.02,0.01,0.02,0.0,0.0,0.0,0.02,0.0,0.0,0.0,0.02,-0.6511796875,0.45008007812499995,9.777271484375,0.04,0.0,0.0,0.0,0.04,0.0,0.0,0.0,0.04
1614726813.8530242,3633,1614726813,852625370,base_imu_link,-0.007952582941508567,0.038451631697288935,0.703651526703816,0.7094594825723054,0.0025,0.0,0.0,0.0,0.0025,0.0,0.0,0.0,0.0025,0.0,-0.01,0.02,0.02,0.0,0.0,0.0,0.02,0.0,0.0,0.0,0.02,-0.641603515625,0.4550596875,9.79144421875,0.04,0.0,0.0,0.0,0.04,0.0,0.0,0.0,0.04
1614726813.8733747,3634,1614726813,872867584,base_imu_link,-0.007900753310818156,0.03851096963783019,0.7038338806100558,0.7092759348942167,0.0025,0.0,0.0,0.0,0.0025,0.0,0.0,0.0,0.0025,-0.0,-0.01,0.02,0.02,0.0,0.0,0.0,0.02,0.0,0.0,0.0,0.02,-0.641603515625,0.41177539062499996,9.839708125,0.04,0.0,0.0,0.0,0.04,0.0,0.0,0.0,0.04
1614726813.8933032,3635,1614726813,892894029,base_imu_link,-0.007966380997336393,0.038325622300856975,0.7039058274353225,0.7092138390863868,0.0025,0.0,0.0,0.0,0.0025,0.0,0.0,0.0,0.0025,-0.0,-0.01,0.02,0.02,0.0,0.0,0.0,0.02,0.0,0.0,0.0,0.02,-0.63662390625,0.430927734375,9.911337890625,0.04,0.0,0.0,0.0,0.04,0.0,0.0,0.0,0.04
1614726813.9133556,3636,1614726813,912919521,base_imu_link,-0.007908205892909187,0.038263127888372286,0.7039710529522426,0.7091531216381018,0.0025,0.0,0.0,0.0,0.0025,0.0,0.0,0.0,0.0025,0.0,-0.01,0.02,0.02,0.0,0.0,0.0,0.02,0.0,0.0,0.0,0.02,-0.63662390625,0.42135156249999994,9.935469843749999,0.04,0.0,0.0,0.0,0.04,0.0,0.0,0.0,0.04
1614726813.9333856,3637,1614726813,932960271,base_imu_link,-0.007911899836842904,0.03813920473029226,0.7040395988252386,0.7090917050632519,0.0025,0.0,0.0,0.0,0.0025,0.0,0.0,0.0,0.0025,0.0,-0.02,0.02,0.02,0.0,0.0,0.0,0.02,0.0,0.0,0.0,0.02,-0.63662390625,0.430927734375,9.892185546875,0.04,0.0,0.0,0.0,0.04,0.0,0.0,0.0,0.04
1614726813.9533722,3638,1614726813,952984809,base_imu_link,-0.007795484501129322,0.038014255306151316,0.7041699859567988,0.7089702234173967,0.0025,0.0,0.0,0.0,0.0025,0.0,0.0,0.0,0.0025,0.0,-0.02,0.02,0.02,0.0,0.0,0.0,0.02,0.0,0.0,0.0,0.02,-0.6270477343749999,0.41177539062499996,9.901761718749999,0.04,0.0,0.0,0.0,0.04,0.0,0.0,0.0,0.04
1614726813.97352,3639,1614726813,973109483,base_imu_link,-0.007747486339272037,0.03782653296826447,0.7044273410540506,0.7087250884754567,0.0025,0.0,0.0,0.0,0.0025,0.0,0.0,0.0,0.0025,0.0,-0.02,0.02,0.02,0.0,0.0,0.0,0.02,0.0,0.0,0.0,0.02,-0.6082784375,0.392623046875,9.873033203124999,0.04,0.0,0.0,0.0,0.04,0.0,0.0,0.0,0.04
1614726813.9934824,3640,1614726813,993043661,base_imu_link,-0.00768978355527967,0.037517621746853094,0.7045056144272422,0.7086643313500592,0.0025,0.0,0.0,0.0,0.0025,0.0,0.0,0.0,0.0025,0.01,-0.02,0.01,0.02,0.0,0.0,0.0,0.02,0.0,0.0,0.0,0.02,-0.6082784375,0.42633117187499997,9.82974890625,0.04,0.0,0.0,0.0,0.04,0.0,0.0,0.0,0.04
1614726814.013587,3641,1614726814,13199090,base_imu_link,-0.007504814646904168,0.03745558189271204,0.7045088796659361,0.7086663499941571,0.0025,0.0,0.0,0.0,0.0025,0.0,0.0,0.0,0.0025,0.0,-0.02,0.01,0.02,0.0,0.0,0.0,0.02,0.0,0.0,0.0,0.02,-0.612875,0.44050390624999997,9.8443046875,0.04,0.0,0.0,0.0,0.04,0.0,0.0,0.0,0.04
1614726814.0334883,3642,1614726814,33103704,base_imu_link,-0.007397750799368965,0.03745207758022459,0.7048180242116479,0.7083601964498175,0.0025,0.0,0.0,0.0,0.0025,0.0,0.0,0.0,0.0025,0.01,-0.01,0.02,0.02,0.0,0.0,0.0,0.02,0.0,0.0,0.0,0.02,-0.59372265625,0.40219921875,9.86805359375,0.04,0.0,0.0,0.0,0.04,0.0,0.0,0.0,0.04
1614726814.053829,3643,1614726814,53408145,base_imu_link,-0.007271312645714234,0.03732924543447547,0.704762726434959,0.7084230056087,0.0025,0.0,0.0,0.0,0.0025,0.0,0.0,0.0,0.0025,0.01,-0.01,0.01,0.02,0.0,0.0,0.0,0.02,0.0,0.0,0.0,0.02,-0.59372265625,0.44050390624999997,9.839708125,0.04,0.0,0.0,0.0,0.04,0.0,0.0,0.0,0.04
1614726814.0736918,3644,1614726814,73272466,base_imu_link,-0.0070310141300608045,0.03732754501104785,0.7048863544412238,0.7083025106169769,0.0025,0.0,0.0,0.0,0.0025,0.0,0.0,0.0,0.0025,0.02,-0.01,0.01,0.02,0.0,0.0,0.0,0.02,0.0,0.0,0.0,0.02,-0.6082784375,0.47880859374999996,9.810596562499999,0.04,0.0,0.0,0.0,0.04,0.0,0.0,0.0,0.04
1614726814.0937507,3645,1614726814,93339204,base_imu_link,-0.006608403119209367,0.037633161968011905,0.7050554081775074,0.708122126139377,0.0025,0.0,0.0,0.0,0.0025,0.0,0.0,0.0,0.0025,0.02,-0.01,0.02,0.02,0.0,0.0,0.0,0.02,0.0,0.0,0.0,0.02,-0.6082784375,0.445483515625,9.8014034375,0.04,0.0,0.0,0.0,0.04,0.0,0.0,0.0,0.04
1614726814.113599,3646,1614726814,113183021,base_imu_link,-0.0064197167105768844,0.03781830412042956,0.7049837335305554,0.708185356081393,0.0025,0.0,0.0,0.0,0.0025,0.0,0.0,0.0,0.0025,0.02,-0.01,0.02,0.02,0.0,0.0,0.0,0.02,0.0,0.0,0.0,0.02,-0.6032988281249999,0.368874140625,9.815576171875,0.04,0.0,0.0,0.0,0.04,0.0,0.0,0.0,0.04
1614726814.1336744,3647,1614726814,133326768,base_imu_link,-0.006536739110213536,0.03769640212215884,0.7048667111309188,0.7083072580796638,0.0025,0.0,0.0,0.0,0.0025,0.0,0.0,0.0,0.0025,0.02,-0.01,0.01,0.02,0.0,0.0,0.0,0.02,0.0,0.0,0.0,0.02,-0.641603515625,0.40219921875,9.76309875,0.04,0.0,0.0,0.0,0.04,0.0,0.0,0.0,0.04
1614726814.153995,3648,1614726814,153585195,base_imu_link,-0.006724833784117212,0.037880993956078544,0.7049186327447668,0.708243974995004,0.0025,0.0,0.0,0.0,0.0025,0.0,0.0,0.0,0.0025,0.03,0.0,0.01,0.02,0.0,0.0,0.0,0.02,0.0,0.0,0.0,0.02,-0.65577625,0.41177539062499996,9.7247940625,0.04,0.0,0.0,0.0,0.04,0.0,0.0,0.0,0.04
1614726814.1741068,3649,1614726814,173689842,base_imu_link,-0.0069610211374941805,0.0382529300706974,0.7047132700536314,0.7084260473303106,0.0025,0.0,0.0,0.0,0.0025,0.0,0.0,0.0,0.0025,0.03,0.01,0.01,0.02,0.0,0.0,0.0,0.02,0.0,0.0,0.0,0.02,-0.67033203125,0.41177539062499996,9.74854296875,0.04,0.0,0.0,0.0,0.04,0.0,0.0,0.0,0.04
1614726814.1941092,3650,1614726814,193649053,base_imu_link,-0.007148905133825215,0.03856073957813036,0.7047583403128229,0.7083626502562727,0.0025,0.0,0.0,0.0,0.0025,0.0,0.0,0.0,0.0025,0.02,0.01,0.01,0.02,0.0,0.0,0.0,0.02,0.0,0.0,0.0,0.02,-0.6607558593749999,0.3784503125,9.796423828124999,0.04,0.0,0.0,0.0,0.04,0.0,0.0,0.0,0.04
1614726814.214018,3651,1614726814,213603258,base_imu_link,-0.007584085033925618,0.03862248412681525,0.7048167952656744,0.7082965978214893,0.0025,0.0,0.0,0.0,0.0025,0.0,0.0,0.0,0.0025,0.01,0.0,0.0,0.02,0.0,0.0,0.0,0.02,0.0,0.0,0.0,0.02,-0.665352421875,0.368874140625,9.815576171875,0.04,0.0,0.0,0.0,0.04,0.0,0.0,0.0,0.04
1614726814.2340698,3652,1614726814,233650445,base_imu_link,-0.008009381727873287,0.03856302174997095,0.7046965392736088,0.7084148012948681,0.0025,0.0,0.0,0.0,0.0025,0.0,0.0,0.0,0.0025,0.01,0.01,-0.0,0.02,0.0,0.0,0.0,0.02,0.0,0.0,0.0,0.02,-0.67492859375,0.39760265625,9.825152343749998,0.04,0.0,0.0,0.0,0.04,0.0,0.0,0.0,0.04
1614726814.2541904,3653,1614726814,253709793,base_imu_link,-0.008324301637735078,0.03874700495784897,0.7048100606088687,0.7082881857503789,0.0025,0.0,0.0,0.0,0.0025,0.0,0.0,0.0,0.0025,0.01,0.01,-0.0,0.02,0.0,0.0,0.0,0.02,0.0,0.0,0.0,0.02,-0.65577625,0.392623046875,9.882609375,0.04,0.0,0.0,0.0,0.04,0.0,0.0,0.0,0.04
1614726814.274848,3654,1614726814,274305343,base_imu_link,-0.008564347358428844,0.03874893107124545,0.7046864359722909,0.7084082151216418,0.0025,0.0,0.0,0.0,0.0025,0.0,0.0,0.0,0.0025,0.01,0.01,0.0,0.02,0.0,0.0,0.0,0.02,0.0,0.0,0.0,0.02,-0.641603515625,0.430927734375,9.940066406249999,0.04,0.0,0.0,0.0,0.04,0.0,0.0,0.0,0.04
1614726814.2945106,3655,1614726814,294023752,base_imu_link,-0.008571110192240262,0.03874743572047618,0.7048100657966956,0.7082852133475734,0.0025,0.0,0.0,0.0,0.0025,0.0,0.0,0.0,0.0025,0.01,0.0,0.0,0.02,0.0,0.0,0.0,0.02,0.0,0.0,0.0,0.02,-0.63662390625,0.407178828125,9.95921875,0.04,0.0,0.0,0.0,0.04,0.0,0.0,0.0,0.04
1614726814.3142352,3656,1614726814,313794136,base_imu_link,-0.008629543687536859,0.03868668250882666,0.704751632301399,0.7083459665592229,0.0025,0.0,0.0,0.0,0.0025,0.0,0.0,0.0,0.0025,0.01,-0.0,0.0,0.02,0.0,0.0,0.0,0.02,0.0,0.0,0.0,0.02,-0.6320273437499999,0.407178828125,9.9638153125,0.04,0.0,0.0,0.0,0.04,0.0,0.0,0.0,0.04
1614726814.3342,3657,1614726814,333774805,base_imu_link,-0.008499634837343879,0.038564711310499086,0.7046347274092601,0.7084704793977288,0.0025,0.0,0.0,0.0,0.0025,0.0,0.0,0.0,0.0025,0.02,-0.01,-0.0,0.02,0.0,0.0,0.0,0.02,0.0,0.0,0.0,0.02,-0.612875,0.41177539062499996,9.954622187499998,0.04,0.0,0.0,0.0,0.04,0.0,0.0,0.0,0.04
1614726814.3542643,3658,1614726814,353842496,base_imu_link,-0.008239654546988351,0.03844386422226906,0.704394091730586,0.7087193668382773,0.0025,0.0,0.0,0.0,0.0025,0.0,0.0,0.0,0.0025,0.02,-0.01,-0.0,0.02,0.0,0.0,0.0,0.02,0.0,0.0,0.0,0.02,-0.612875,0.42633117187499997,9.901761718749999,0.04,0.0,0.0,0.0,0.04,0.0,0.0,0.0,0.04
1614726814.3742793,3659,1614726814,373851537,base_imu_link,-0.008044644068863736,0.038383919961853474,0.7042118701076913,0.7089059178689338,0.0025,0.0,0.0,0.0,0.0025,0.0,0.0,0.0,0.0025,0.02,-0.01,-0.0,0.02,0.0,0.0,0.0,0.02,0.0,0.0,0.0,0.02,-0.612875,0.45008007812499995,9.853880859375,0.04,0.0,0.0,0.0,0.04,0.0,0.0,0.0,0.04
1614726814.394302,3660,1614726814,393857717,base_imu_link,-0.0077225497709193115,0.038447425765701516,0.703961011564193,0.7091551676992452,0.0025,0.0,0.0,0.0,0.0025,0.0,0.0,0.0,0.0025,0.02,-0.01,-0.0,0.02,0.0,0.0,0.0,0.02,0.0,0.0,0.0,0.02,-0.622451171875,0.464635859375,9.796423828124999,0.04,0.0,0.0,0.0,0.04,0.0,0.0,0.0,0.04
1614726814.4143677,3661,1614726814,413928270,base_imu_link,-0.007410116107537678,0.03863200165626313,0.7038890295638616,0.7092199184223104,0.0025,0.0,0.0,0.0,0.0025,0.0,0.0,0.0,0.0025,0.02,-0.01,-0.0,0.02,0.0,0.0,0.0,0.02,0.0,0.0,0.0,0.02,-0.6320273437499999,0.47421203125,9.796423828124999,0.04,0.0,0.0,0.0,0.04,0.0,0.0,0.0,0.04
1614726814.4344876,3662,1614726814,434072732,base_imu_link,-0.007217667686706945,0.03881753835915164,0.7037550983263197,0.709344673320814,0.0025,0.0,0.0,0.0,0.0025,0.0,0.0,0.0,0.0025,0.02,-0.01,0.01,0.02,0.0,0.0,0.0,0.02,0.0,0.0,0.0,0.02,-0.63662390625,0.46923242187499997,9.8780128125,0.04,0.0,0.0,0.0,0.04,0.0,0.0,0.0,0.04
1614726814.4545925,3663,1614726814,454160451,base_imu_link,-0.007025573625297397,0.03887978075225096,0.7036278890605331,0.7094693775633384,0.0025,0.0,0.0,0.0,0.0025,0.0,0.0,0.0,0.0025,0.01,-0.02,0.01,0.02,0.0,0.0,0.0,0.02,0.0,0.0,0.0,0.02,-0.646200078125,0.4550596875,9.925510625,0.04,0.0,0.0,0.0,0.04,0.0,0.0,0.0,0.04
1614726814.4747882,3664,1614726814,474378585,base_imu_link,-0.006905968615152594,0.038755531411289235,0.7036965659555986,0.7094092327033903,0.0025,0.0,0.0,0.0,0.0025,0.0,0.0,0.0,0.0025,0.0,-0.02,0.01,0.02,0.0,0.0,0.0,0.02,0.0,0.0,0.0,0.02,-0.6511796875,0.43590734375,9.897165156249999,0.04,0.0,0.0,0.0,0.04,0.0,0.0,0.0,0.04
1614726814.4948647,3665,1614726814,494400501,base_imu_link,-0.006961122718631588,0.03869533768821082,0.7035761194540225,0.7095314353470962,0.0025,0.0,0.0,0.0,0.0025,0.0,0.0,0.0,0.0025,0.01,-0.02,0.0,0.02,0.0,0.0,0.0,0.02,0.0,0.0,0.0,0.02,-0.665352421875,0.42135156249999994,9.8780128125,0.04,0.0,0.0,0.0,0.04,0.0,0.0,0.0,0.04
1614726814.5143154,3666,1614726814,513944387,base_imu_link,-0.007026412410954752,0.03863332591878314,0.7036414091463457,0.7094694235776684,0.0025,0.0,0.0,0.0,0.0025,0.0,0.0,0.0,0.0025,0.01,-0.02,-0.0,0.02,0.0,0.0,0.0,0.02,0.0,0.0,0.0,0.02,-0.67492859375,0.445483515625,9.86805359375,0.04,0.0,0.0,0.0,0.04,0.0,0.0,0.0,0.04
1614726814.5345187,3667,1614726814,534161329,base_imu_link,-0.007074398287189278,0.03869762185861567,0.7033903451374383,0.7097143575543595,0.0025,0.0,0.0,0.0,0.0025,0.0,0.0,0.0,0.0025,0.01,-0.03,-0.0,0.02,0.0,0.0,0.0,0.02,0.0,0.0,0.0,0.02,-0.665352421875,0.44050390624999997,9.873033203124999,0.04,0.0,0.0,0.0,0.04,0.0,0.0,0.0,0.04
1614726814.554622,3668,1614726814,554211139,base_imu_link,-0.0070095547741678005,0.03863638809184525,0.7033317777398812,0.7097763775150189,0.0025,0.0,0.0,0.0,0.0025,0.0,0.0,0.0,0.0025,0.01,-0.03,-0.0,0.02,0.0,0.0,0.0,0.02,0.0,0.0,0.0,0.02,-0.6511796875,0.430927734375,9.834728515624999,0.04,0.0,0.0,0.0,0.04,0.0,0.0,0.0,0.04
1614726814.574728,3669,1614726814,574311017,base_imu_link,-0.006944721949442342,0.038575143008679535,0.703273199518691,0.7098383872527946,0.0025,0.0,0.0,0.0,0.0025,0.0,0.0,0.0,0.0025,0.01,-0.03,-0.0,0.02,0.0,0.0,0.0,0.02,0.0,0.0,0.0,0.02,-0.65577625,0.39760265625,9.8014034375,0.04,0.0,0.0,0.0,0.04,0.0,0.0,0.0,0.04
1614726814.5949502,3670,1614726814,594502925,base_imu_link,-0.00711662859311539,0.0385167418328862,0.7030287455763015,0.7100819650501332,0.0025,0.0,0.0,0.0,0.0025,0.0,0.0,0.0,0.0025,0.01,-0.02,-0.01,0.02,0.0,0.0,0.0,0.02,0.0,0.0,0.0,0.02,-0.67033203125,0.42135156249999994,9.777271484375,0.04,0.0,0.0,0.0,0.04,0.0,0.0,0.0,0.04
1614726814.6149092,3671,1614726814,614531040,base_imu_link,-0.007178067968261391,0.03857862021104795,0.7030253871136423,0.710081312580868,0.0025,0.0,0.0,0.0,0.0025,0.0,0.0,0.0,0.0025,0.01,-0.02,-0.01,0.02,0.0,0.0,0.0,0.02,0.0,0.0,0.0,0.02,-0.67492859375,0.416755,9.76309875,0.04,0.0,0.0,0.0,0.04,0.0,0.0,0.0,0.04
1614726814.6350064,3672,1614726814,634568452,base_imu_link,-0.007373028639737354,0.03863909705692305,0.7032079031145962,0.7098952765193441,0.0025,0.0,0.0,0.0,0.0025,0.0,0.0,0.0,0.0025,0.01,-0.02,-0.01,0.02,0.0,0.0,0.0,0.02,0.0,0.0,0.0,0.02,-0.67492859375,0.44050390624999997,9.76309875,0.04,0.0,0.0,0.0,0.04,0.0,0.0,0.0,0.04
1614726814.6549706,3673,1614726814,654585838,base_imu_link,-0.0075573945152891606,0.03882468128056926,0.7031977791471232,0.7098932407863568,0.0025,0.0,0.0,0.0,0.0025,0.0,0.0,0.0,0.0025,0.0,-0.01,-0.0,0.02,0.0,0.0,0.0,0.02,0.0,0.0,0.0,0.02,-0.67492859375,0.45008007812499995,9.767695312499999,0.04,0.0,0.0,0.0,0.04,0.0,0.0,0.0,0.04
1614726814.6750612,3674,1614726814,674614191,base_imu_link,-0.00768662932183161,0.03907028641478205,0.70330808880486,0.7097690896839555,0.0025,0.0,0.0,0.0,0.0025,0.0,0.0,0.0,0.0025,0.01,-0.0,-0.0,0.02,0.0,0.0,0.0,0.02,0.0,0.0,0.0,0.02,-0.6894843749999999,0.46923242187499997,9.810596562499999,0.04,0.0,0.0,0.0,0.04,0.0,0.0,0.0,0.04
1614726814.695381,3675,1614726814,694841384,base_imu_link,-0.00769209334730217,0.03943861190733476,0.7034114179761548,0.7096462531793812,0.0025,0.0,0.0,0.0,0.0025,0.0,0.0,0.0,0.0025,0.01,-0.0,0.0,0.02,0.0,0.0,0.0,0.02,0.0,0.0,0.0,0.02,-0.71323328125,0.48838476562499994,9.82974890625,0.04,0.0,0.0,0.0,0.04,0.0,0.0,0.0,0.04
1614726814.7152462,3676,1614726814,714800596,base_imu_link,-0.007680316434276378,0.039810280826805336,0.7032048771924863,0.7098303001229664,0.0025,0.0,0.0,0.0,0.0025,0.0,0.0,0.0,0.0025,0.01,-0.01,0.0,0.02,0.0,0.0,0.0,0.02,0.0,0.0,0.0,0.02,-0.7086367187499999,0.49336437499999997,9.834728515624999,0.04,0.0,0.0,0.0,0.04,0.0,0.0,0.0,0.04
1614726814.7354927,3677,1614726814,735110998,base_imu_link,-0.007750860321373818,0.04023974745056896,0.7033662570849812,0.7096454010868082,0.0025,0.0,0.0,0.0,0.0025,0.0,0.0,0.0,0.0025,0.01,-0.01,0.01,0.02,0.0,0.0,0.0,0.02,0.0,0.0,0.0,0.02,-0.67492859375,0.45965625,9.82974890625,0.04,0.0,0.0,0.0,0.04,0.0,0.0,0.0,0.04
1614726814.7553368,3678,1614726814,754897594,base_imu_link,-0.007753931026023925,0.04036228320794989,0.7034211537876667,0.7095839929507377,0.0025,0.0,0.0,0.0,0.0025,0.0,0.0,0.0,0.0025,0.01,-0.0,-0.0,0.02,0.0,0.0,0.0,0.02,0.0,0.0,0.0,0.02,-0.665352421875,0.45008007812499995,9.853880859375,0.04,0.0,0.0,0.0,0.04,0.0,0.0,0.0,0.04
1614726814.7753453,3679,1614726814,774926900,base_imu_link,-0.007749957128780637,0.040486170745572286,0.7033521778591973,0.7096453494835195,0.0025,0.0,0.0,0.0,0.0025,0.0,0.0,0.0,0.0025,0.02,-0.0,-0.01,0.02,0.0,0.0,0.0,0.02,0.0,0.0,0.0,0.02,-0.67492859375,0.47421203125,9.839708125,0.04,0.0,0.0,0.0,0.04,0.0,0.0,0.0,0.04
1614726814.7954,3680,1614726814,794980287,base_imu_link,-0.007673380031652088,0.04067343982387339,0.7030938034462034,0.7098914664139407,0.0025,0.0,0.0,0.0,0.0025,0.0,0.0,0.0,0.0025,0.01,-0.0,-0.0,0.02,0.0,0.0,0.0,0.02,0.0,0.0,0.0,0.02,-0.67033203125,0.48838476562499994,9.815576171875,0.04,0.0,0.0,0.0,0.04,0.0,0.0,0.0,0.04
1614726814.8158066,3681,1614726814,815365076,base_imu_link,-0.007603804514789758,0.04085933107417625,0.7029592262204702,0.7100148051221111,0.0025,0.0,0.0,0.0,0.0025,0.0,0.0,0.0,0.0025,0.01,0.0,0.0,0.02,0.0,0.0,0.0,0.02,0.0,0.0,0.0,0.02,-0.6511796875,0.464635859375,9.79144421875,0.04,0.0,0.0,0.0,0.04,0.0,0.0,0.0,0.04
1614726814.835777,3682,1614726814,835373640,base_imu_link,-0.007544909647283299,0.04104322262675075,0.703010468635328,0.7099540895043579,0.0025,0.0,0.0,0.0,0.0025,0.0,0.0,0.0,0.0025,0.02,0.01,0.0,0.02,0.0,0.0,0.0,0.02,0.0,0.0,0.0,0.02,-0.6320273437499999,0.4550596875,9.834728515624999,0.04,0.0,0.0,0.0,0.04,0.0,0.0,0.0,0.04
1614726814.8559635,3683,1614726814,855546951,base_imu_link,-0.007544909647283299,0.04104322262675075,0.703010468635328,0.7099540895043579,0.0025,0.0,0.0,0.0,0.0025,0.0,0.0,0.0,0.0025,0.02,0.01,0.0,0.02,0.0,0.0,0.0,0.02,0.0,0.0,0.0,0.02,-0.6270477343749999,0.48838476562499994,9.892185546875,0.04,0.0,0.0,0.0,0.04,0.0,0.0,0.0,0.04
1614726814.8758156,3684,1614726814,875400543,base_imu_link,-0.007356478215984556,0.04098150305966679,0.7029520786665179,0.7100174460769609,0.0025,0.0,0.0,0.0,0.0025,0.0,0.0,0.0,0.0025,0.01,-0.0,0.01,0.02,0.0,0.0,0.0,0.02,0.0,0.0,0.0,0.02,-0.6320273437499999,0.48838476562499994,9.940066406249999,0.04,0.0,0.0,0.0,0.04,0.0,0.0,0.0,0.04
1614726814.895845,3685,1614726814,895433187,base_imu_link,-0.00711374861444888,0.04085664274973429,0.7030211624682975,0.7099587131978836,0.0025,0.0,0.0,0.0,0.0025,0.0,0.0,0.0,0.0025,0.0,-0.01,0.01,0.02,0.0,0.0,0.0,0.02,0.0,0.0,0.0,0.02,-0.6270477343749999,0.45008007812499995,9.944662968749999,0.04,0.0,0.0,0.0,0.04,0.0,0.0,0.0,0.04
1614726814.915867,3686,1614726814,915454387,base_imu_link,-0.007049770489173331,0.040548984921611256,0.7029769483926827,0.7100207677148526,0.0025,0.0,0.0,0.0,0.0025,0.0,0.0,0.0,0.0025,0.01,-0.02,0.0,0.02,0.0,0.0,0.0,0.02,0.0,0.0,0.0,0.02,-0.622451171875,0.43590734375,9.930490234374998,0.04,0.0,0.0,0.0,0.04,0.0,0.0,0.0,0.04
1614726814.9358542,3687,1614726814,935474157,base_imu_link,-0.006865951665541405,0.04024018181759566,0.7029945530133255,0.7100227073190041,0.0025,0.0,0.0,0.0,0.0025,0.0,0.0,0.0,0.0025,0.01,-0.02,0.0,0.02,0.0,0.0,0.0,0.02,0.0,0.0,0.0,0.02,-0.63662390625,0.4550596875,9.882609375,0.04,0.0,0.0,0.0,0.04,0.0,0.0,0.0,0.04
1614726814.9559228,3688,1614726814,955507040,base_imu_link,-0.006736597334372419,0.03999441357065377,0.7028846078243921,0.7101466702189377,0.0025,0.0,0.0,0.0,0.0025,0.0,0.0,0.0,0.0025,0.01,-0.02,0.01,0.02,0.0,0.0,0.0,0.02,0.0,0.0,0.0,0.02,-0.641603515625,0.42633117187499997,9.825152343749998,0.04,0.0,0.0,0.0,0.04,0.0,0.0,0.0,0.04
1614726814.97597,3689,1614726814,975559949,base_imu_link,-0.006744093701342976,0.039870021531588196,0.7030155054254694,0.7100240120690217,0.0025,0.0,0.0,0.0,0.0025,0.0,0.0,0.0,0.0025,0.01,-0.02,0.01,0.02,0.0,0.0,0.0,0.02,0.0,0.0,0.0,0.02,-0.6270477343749999,0.42135156249999994,9.79144421875,0.04,0.0,0.0,0.0,0.04,0.0,0.0,0.0,0.04
1614726814.9959993,3690,1614726814,995583772,base_imu_link,-0.006748078371399891,0.0397462159164909,0.7030844068611916,0.7099626881655539,0.0025,0.0,0.0,0.0,0.0025,0.0,0.0,0.0,0.0025,0.01,-0.01,0.01,0.02,0.0,0.0,0.0,0.02,0.0,0.0,0.0,0.02,-0.646200078125,0.39760265625,9.772291874999999,0.04,0.0,0.0,0.0,0.04,0.0,0.0,0.0,0.04
1614726815.01624,3691,1614726815,15813350,base_imu_link,-0.006940850726829054,0.03956093668479774,0.7032186891445336,0.7098381731899556,0.0025,0.0,0.0,0.0,0.0025,0.0,0.0,0.0,0.0025,0.02,-0.01,0.01,0.02,0.0,0.0,0.0,0.02,0.0,0.0,0.0,0.02,-0.6511796875,0.39760265625,9.806,0.04,0.0,0.0,0.0,0.04,0.0,0.0,0.0,0.04
1614726815.036233,3692,1614726815,35798788,base_imu_link,-0.007129648800059753,0.03949943171481597,0.7032840859836574,0.7097749343308243,0.0025,0.0,0.0,0.0,0.0025,0.0,0.0,0.0,0.0025,0.02,-0.01,0.01,0.02,0.0,0.0,0.0,0.02,0.0,0.0,0.0,0.02,-0.665352421875,0.430927734375,9.825152343749998,0.04,0.0,0.0,0.0,0.04,0.0,0.0,0.0,0.04
1614726815.0562334,3693,1614726815,55858135,base_imu_link,-0.007253054650604149,0.039499905561594495,0.7032840909045952,0.7097736527509015,0.0025,0.0,0.0,0.0,0.0025,0.0,0.0,0.0,0.0025,0.01,-0.01,0.01,0.02,0.0,0.0,0.0,0.02,0.0,0.0,0.0,0.02,-0.6894843749999999,0.47880859374999996,9.806,0.04,0.0,0.0,0.0,0.04,0.0,0.0,0.0,0.04
1614726815.0763445,3694,1614726815,75869798,base_imu_link,-0.007313574672362499,0.03980818890742867,0.7032668035110639,0.7097729374953322,0.0025,0.0,0.0,0.0,0.0025,0.0,0.0,0.0,0.0025,0.01,-0.01,0.01,0.02,0.0,0.0,0.0,0.02,0.0,0.0,0.0,0.02,-0.67492859375,0.45965625,9.8014034375,0.04,0.0,0.0,0.0,0.04,0.0,0.0,0.0,0.04
1614726815.0963285,3695,1614726815,95905542,base_imu_link,-0.007316586197468118,0.03993076701870199,0.7033217866156457,0.7097115370934091,0.0025,0.0,0.0,0.0,0.0025,0.0,0.0,0.0,0.0025,0.01,-0.01,0.01,0.02,0.0,0.0,0.0,0.02,0.0,0.0,0.0,0.02,-0.6607558593749999,0.445483515625,9.796423828124999,0.04,0.0,0.0,0.0,0.04,0.0,0.0,0.0,0.04
1614726815.1165502,3696,1614726815,116131782,base_imu_link,-0.00737059381630311,0.04011710803798882,0.703187439740982,0.7098335837222598,0.0025,0.0,0.0,0.0,0.0025,0.0,0.0,0.0,0.0025,0.01,0.0,0.01,0.02,0.0,0.0,0.0,0.02,0.0,0.0,0.0,0.02,-0.67033203125,0.44050390624999997,9.796423828124999,0.04,0.0,0.0,0.0,0.04,0.0,0.0,0.0,0.04
1614726815.1365912,3697,1614726815,136176586,base_imu_link,-0.007547941716131774,0.04030397252442031,0.7030530288021436,0.7099542640668713,0.0025,0.0,0.0,0.0,0.0025,0.0,0.0,0.0,0.0025,0.01,0.0,0.01,0.02,0.0,0.0,0.0,0.02,0.0,0.0,0.0,0.02,-0.67492859375,0.44050390624999997,9.858860468749999,0.04,0.0,0.0,0.0,0.04,0.0,0.0,0.0,0.04
1614726815.156349,3698,1614726815,155949831,base_imu_link,-0.007612419476113699,0.040488378142891565,0.7031044165657055,0.7098921902027635,0.0025,0.0,0.0,0.0,0.0025,0.0,0.0,0.0,0.0025,0.02,0.0,-0.0,0.02,0.0,0.0,0.0,0.02,0.0,0.0,0.0,0.02,-0.6894843749999999,0.45965625,9.892185546875,0.04,0.0,0.0,0.0,0.04,0.0,0.0,0.0,0.04
1614726815.176341,3699,1614726815,175922632,base_imu_link,-0.0075977482963991635,0.04061424236731026,0.7028495027645106,0.7101375458328015,0.0025,0.0,0.0,0.0,0.0025,0.0,0.0,0.0,0.0025,0.02,-0.01,-0.0,0.02,0.0,0.0,0.0,0.02,0.0,0.0,0.0,0.02,-0.699060546875,0.49336437499999997,9.90635828125,0.04,0.0,0.0,0.0,0.04,0.0,0.0,0.0,0.04
1614726815.196623,3700,1614726815,196208715,base_imu_link,-0.007528118631958569,0.04080009952827102,0.7027148985242655,0.7102608328637994,0.0025,0.0,0.0,0.0,0.0025,0.0,0.0,0.0,0.0025,0.01,-0.01,0.0,0.02,0.0,0.0,0.0,0.02,0.0,0.0,0.0,0.02,-0.6940809375,0.483788203125,9.873033203124999,0.04,0.0,0.0,0.0,0.04,0.0,0.0,0.0,0.04
1614726815.2166424,3701,1614726815,216242790,base_imu_link,-0.007469154114782592,0.04098397680572938,0.7027661783416707,0.7102001295135338,0.0025,0.0,0.0,0.0,0.0025,0.0,0.0,0.0,0.0025,0.01,-0.01,0.0,0.02,0.0,0.0,0.0,0.02,0.0,0.0,0.0,0.02,-0.684504765625,0.46923242187499997,9.834728515624999,0.04,0.0,0.0,0.0,0.04,0.0,0.0,0.0,0.04
1614726815.236711,3702,1614726815,236295938,base_imu_link,-0.007468605778759286,0.041107181246727444,0.7027590204801347,0.7102000976566194,0.0025,0.0,0.0,0.0,0.0025,0.0,0.0,0.0,0.0025,0.01,-0.01,0.0,0.02,0.0,0.0,0.0,0.02,0.0,0.0,0.0,0.02,-0.665352421875,0.42135156249999994,9.815576171875,0.04,0.0,0.0,0.0,0.04,0.0,0.0,0.0,0.04
1614726815.256467,3703,1614726815,256029367,base_imu_link,-0.007658106665044982,0.040922529818719605,0.7028317320332036,0.7101367871070686,0.0025,0.0,0.0,0.0,0.0025,0.0,0.0,0.0,0.0025,0.01,-0.01,-0.0,0.02,0.0,0.0,0.0,0.02,0.0,0.0,0.0,0.02,-0.665352421875,0.43590734375,9.839708125,0.04,0.0,0.0,0.0,0.04,0.0,0.0,0.0,0.04
1614726815.2765305,3704,1614726815,276113986,base_imu_link,-0.00778204879852162,0.040799861917941875,0.7028388636572638,0.7101354396993157,0.0025,0.0,0.0,0.0,0.0025,0.0,0.0,0.0,0.0025,0.0,-0.01,-0.0,0.02,0.0,0.0,0.0,0.02,0.0,0.0,0.0,0.02,-0.6607558593749999,0.464635859375,9.8443046875,0.04,0.0,0.0,0.0,0.04,0.0,0.0,0.0,0.04
1614726815.2969308,3705,1614726815,296475410,base_imu_link,-0.007713505118503761,0.04073933592557907,0.7027184625354809,0.7102588054779042,0.0025,0.0,0.0,0.0,0.0025,0.0,0.0,0.0,0.0025,0.01,-0.01,0.0,0.02,0.0,0.0,0.0,0.02,0.0,0.0,0.0,0.02,-0.6607558593749999,0.48838476562499994,9.8443046875,0.04,0.0,0.0,0.0,0.04,0.0,0.0,0.0,0.04
1614726815.3169444,3706,1614726815,316521644,base_imu_link,-0.007528118631958569,0.04080009952827102,0.7027148985242655,0.7102608328637994,0.0025,0.0,0.0,0.0,0.0025,0.0,0.0,0.0,0.0025,0.01,-0.01,0.01,0.02,0.0,0.0,0.0,0.02,0.0,0.0,0.0,0.02,-0.646200078125,0.4979609375,9.86805359375,0.04,0.0,0.0,0.0,0.04,0.0,0.0,0.0,0.04
1614726815.3369672,3707,1614726815,336573839,base_imu_link,-0.007288429217622478,0.04079770808253844,0.7028388401616322,0.7101408244672344,0.0025,0.0,0.0,0.0,0.0025,0.0,0.0,0.0,0.0025,0.0,-0.01,0.01,0.02,0.0,0.0,0.0,0.02,0.0,0.0,0.0,0.02,-0.6320273437499999,0.47421203125,9.882609375,0.04,0.0,0.0,0.0,0.04,0.0,0.0,0.0,0.04
1614726815.3570008,3708,1614726815,356578826,base_imu_link,-0.007042693248882886,0.04055021472107412,0.7028530156848191,0.7101434495231456,0.0025,0.0,0.0,0.0,0.0025,0.0,0.0,0.0,0.0025,0.0,-0.02,0.01,0.02,0.0,0.0,0.0,0.02,0.0,0.0,0.0,0.02,-0.6320273437499999,0.464635859375,9.8872059375,0.04,0.0,0.0,0.0,0.04,0.0,0.0,0.0,0.04
1614726815.3770328,3709,1614726815,376626253,base_imu_link,-0.006862440021080669,0.04024078083168588,0.7029325891665662,0.7100840524632284,0.0025,0.0,0.0,0.0,0.0025,0.0,0.0,0.0,0.0025,0.0,-0.03,0.01,0.02,0.0,0.0,0.0,0.02,0.0,0.0,0.0,0.02,-0.646200078125,0.44050390624999997,9.90635828125,0.04,0.0,0.0,0.0,0.04,0.0,0.0,0.0,0.04
1614726815.3970742,3710,1614726815,396681308,base_imu_link,-0.006794536069706113,0.0400568832244598,0.7028191456301192,0.7102073844460426,0.0025,0.0,0.0,0.0,0.0025,0.0,0.0,0.0,0.0025,0.01,-0.03,0.01,0.02,0.0,0.0,0.0,0.02,0.0,0.0,0.0,0.02,-0.6320273437499999,0.392623046875,9.897165156249999,0.04,0.0,0.0,0.0,0.04,0.0,0.0,0.0,0.04
1614726815.4167163,3711,1614726815,416330814,base_imu_link,-0.006789824305846369,0.03956520189968424,0.7027229516050841,0.7103301671560708,0.0025,0.0,0.0,0.0,0.0025,0.0,0.0,0.0,0.0025,0.01,-0.03,-0.01,0.02,0.0,0.0,0.0,0.02,0.0,0.0,0.0,0.02,-0.6511796875,0.37347070312499997,9.935469843749999,0.04,0.0,0.0,0.0,0.04,0.0,0.0,0.0,0.04
1614726815.4368124,3712,1614726815,436386585,base_imu_link,-0.006843878677752092,0.039012782418710326,0.7025677978295809,0.7105136547494971,0.0025,0.0,0.0,0.0,0.0025,0.0,0.0,0.0,0.0025,0.01,-0.05,-0.02,0.02,0.0,0.0,0.0,0.02,0.0,0.0,0.0,0.02,-0.6511796875,0.32558984375,9.944662968749999,0.04,0.0,0.0,0.0,0.04,0.0,0.0,0.0,0.04
1614726815.456781,3713,1614726815,456351995,base_imu_link,-0.006947516095172083,0.03827826964389816,0.7021740763237134,0.7109416801905177,0.0025,0.0,0.0,0.0,0.0025,0.0,0.0,0.0,0.0025,0.01,-0.06,-0.04,0.02,0.0,0.0,0.0,0.02,0.0,0.0,0.0,0.02,-0.6511796875,0.340145625,9.8872059375,0.04,0.0,0.0,0.0,0.04,0.0,0.0,0.0,0.04
1614726815.4770954,3714,1614726815,476665496,base_imu_link,-0.0069278959334361755,0.037666339409834146,0.7017727565623685,0.7113706834557164,0.0025,0.0,0.0,0.0,0.0025,0.0,0.0,0.0,0.0025,0.02,-0.06,-0.06,0.02,0.0,0.0,0.0,0.02,0.0,0.0,0.0,0.02,-0.63662390625,0.34474218749999996,9.863457031249999,0.04,0.0,0.0,0.0,0.04,0.0,0.0,0.0,0.04
1614726815.4972606,3715,1614726815,496798038,base_imu_link,-0.006765326975828115,0.037180330185066834,0.7009913650002758,0.7121677889326992,0.0025,0.0,0.0,0.0,0.0025,0.0,0.0,0.0,0.0025,0.03,-0.07,-0.08,0.02,0.0,0.0,0.0,0.02,0.0,0.0,0.0,0.02,-0.641603515625,0.416755,9.815576171875,0.04,0.0,0.0,0.0,0.04,0.0,0.0,0.0,0.04
1614726815.5171964,3716,1614726815,516827106,base_imu_link,-0.006480603282483283,0.03706210879882136,0.700251649902902,0.7129039407106282,0.0025,0.0,0.0,0.0,0.0025,0.0,0.0,0.0,0.0025,0.02,-0.06,-0.09,0.02,0.0,0.0,0.0,0.02,0.0,0.0,0.0,0.02,-0.6511796875,0.46923242187499997,9.729390624999999,0.04,0.0,0.0,0.0,0.04,0.0,0.0,0.0,0.04
1614726815.5372415,3717,1614726815,536861181,base_imu_link,-0.0061369278807125414,0.037373017392941535,0.6996130168386421,0.7135174996852339,0.0025,0.0,0.0,0.0,0.0025,0.0,0.0,0.0,0.0025,0.03,-0.04,-0.09,0.02,0.0,0.0,0.0,0.02,0.0,0.0,0.0,0.02,-0.641603515625,0.464635859375,9.686489374999999,0.04,0.0,0.0,0.0,0.04,0.0,0.0,0.0,0.04
1614726815.557347,3718,1614726815,556937932,base_imu_link,-0.005788177830798942,0.037807084111995654,0.6989048139026208,0.7141912786446573,0.0025,0.0,0.0,0.0,0.0025,0.0,0.0,0.0,0.0025,0.04,-0.03,-0.09,0.02,0.0,0.0,0.0,0.02,0.0,0.0,0.0,0.02,-0.6320273437499999,0.40219921875,9.6573778125,0.04,0.0,0.0,0.0,0.04,0.0,0.0,0.0,0.04
1614726815.5774539,3719,1614726815,577077150,base_imu_link,-0.005808803321543609,0.03824460430463553,0.6981957352097602,0.7148610517998977,0.0025,0.0,0.0,0.0,0.0025,0.0,0.0,0.0,0.0025,0.06,0.0,-0.09,0.02,0.0,0.0,0.0,0.02,0.0,0.0,0.0,0.02,-0.65577625,0.507537109375,9.71483484375,0.04,0.0,0.0,0.0,0.04,0.0,0.0,0.0,0.04
1614726815.597742,3720,1614726815,597349882,base_imu_link,-0.005527111457937189,0.03923102170010061,0.6977049053359807,0.7152889227755509,0.0025,0.0,0.0,0.0,0.0025,0.0,0.0,0.0,0.0025,0.07,0.02,-0.09,0.02,0.0,0.0,0.0,0.02,0.0,0.0,0.0,0.02,-0.6799082031249999,0.564994140625,9.839708125,0.04,0.0,0.0,0.0,0.04,0.0,0.0,0.0,0.04
1614726815.6176627,3721,1614726815,617244958,base_imu_link,-0.005061873452445537,0.04027591556220452,0.6972713692084259,0.715656946968996,0.0025,0.0,0.0,0.0,0.0025,0.0,0.0,0.0,0.0025,0.06,0.0,-0.07,0.02,0.0,0.0,0.0,0.02,0.0,0.0,0.0,0.02,-0.67492859375,0.6032988281249999,9.848901249999999,0.04,0.0,0.0,0.0,0.04,0.0,0.0,0.0,0.04
1614726815.6377132,3722,1614726815,637338399,base_imu_link,-0.004543375647431656,0.04113387453505009,0.6969718187536016,0.7159033775355147,0.0025,0.0,0.0,0.0,0.0025,0.0,0.0,0.0,0.0025,0.05,-0.01,-0.06,0.02,0.0,0.0,0.0,0.02,0.0,0.0,0.0,0.02,-0.6799082031249999,0.63662390625,9.810596562499999,0.04,0.0,0.0,0.0,0.04,0.0,0.0,0.0,0.04
1614726815.6577568,3723,1614726815,657344818,base_imu_link,-0.004016948932420748,0.04199211672661382,0.6965461298523364,0.7162709091131825,0.0025,0.0,0.0,0.0,0.0025,0.0,0.0,0.0,0.0025,0.04,-0.01,-0.04,0.02,0.0,0.0,0.0,0.02,0.0,0.0,0.0,0.02,-0.6799082031249999,0.55082140625,9.820555781249999,0.04,0.0,0.0,0.0,0.04,0.0,0.0,0.0,0.04
1614726815.6776984,3724,1614726815,677268028,base_imu_link,-0.003875976158411034,0.04248424977945068,0.6963291300065197,0.7164536328569073,0.0025,0.0,0.0,0.0,0.0025,0.0,0.0,0.0,0.0025,0.04,-0.01,-0.04,0.02,0.0,0.0,0.0,0.02,0.0,0.0,0.0,0.02,-0.6894843749999999,0.5316690625,9.820555781249999,0.04,0.0,0.0,0.0,0.04,0.0,0.0,0.0,0.04
1614726815.6978474,3725,1614726815,697330474,base_imu_link,-0.003848603209283652,0.04285580514304213,0.6959315900998586,0.7168178221277437,0.0025,0.0,0.0,0.0,0.0025,0.0,0.0,0.0,0.0025,0.04,-0.0,-0.05,0.02,0.0,0.0,0.0,0.02,0.0,0.0,0.0,0.02,-0.699060546875,0.5125167187499999,9.810596562499999,0.04,0.0,0.0,0.0,0.04,0.0,0.0,0.0,0.04
1614726815.7178102,3726,1614726815,717321395,base_imu_link,-0.004014360600810871,0.043167711674906004,0.6956626084083682,0.7170592505784888,0.0025,0.0,0.0,0.0,0.0025,0.0,0.0,0.0,0.0025,0.03,-0.01,-0.05,0.02,0.0,0.0,0.0,0.02,0.0,0.0,0.0,0.02,-0.7036571093749999,0.536265625,9.815576171875,0.04,0.0,0.0,0.0,0.04,0.0,0.0,0.0,0.04
1614726815.7376604,3727,1614726815,737374067,base_imu_link,-0.00411909930295077,0.04341724775228685,0.6953971887477436,0.7173010006268525,0.0025,0.0,0.0,0.0,0.0025,0.0,0.0,0.0,0.0025,0.02,-0.01,-0.05,0.02,0.0,0.0,0.0,0.02,0.0,0.0,0.0,0.02,-0.6940809375,0.5316690625,9.782251093749998,0.04,0.0,0.0,0.0,0.04,0.0,0.0,0.0,0.04
1614726815.7577496,3728,1614726815,757391929,base_imu_link,-0.004217902414885809,0.04354442817539932,0.6950139518535761,0.717664057064983,0.0025,0.0,0.0,0.0,0.0025,0.0,0.0,0.0,0.0025,0.01,-0.01,-0.05,0.02,0.0,0.0,0.0,0.02,0.0,0.0,0.0,0.02,-0.6799082031249999,0.564994140625,9.76309875,0.04,0.0,0.0,0.0,0.04,0.0,0.0,0.0,0.04
1614726815.7779279,3729,1614726815,777534484,base_imu_link,-0.00426347079050873,0.0438543879574239,0.694807015771647,0.7178452662713576,0.0025,0.0,0.0,0.0,0.0025,0.0,0.0,0.0,0.0025,0.01,0.0,-0.04,0.02,0.0,0.0,0.0,0.02,0.0,0.0,0.0,0.02,-0.646200078125,0.545841796875,9.719814453124998,0.04,0.0,0.0,0.0,0.04,0.0,0.0,0.0,0.04
1614726815.7983391,3730,1614726815,797781944,base_imu_link,-0.004263535763399301,0.04410033753787548,0.694854332326781,0.7177843961375473,0.0025,0.0,0.0,0.0,0.0025,0.0,0.0,0.0,0.0025,0.02,0.01,-0.04,0.02,0.0,0.0,0.0,0.02,0.0,0.0,0.0,0.02,-0.6174715625,0.51711328125,9.758119140624999,0.04,0.0,0.0,0.0,0.04,0.0,0.0,0.0,0.04
1614726815.8183708,3731,1614726815,817832708,base_imu_link,-0.004306957896917183,0.044041583347715976,0.6945449196635017,0.718087142079233,0.0025,0.0,0.0,0.0,0.0025,0.0,0.0,0.0,0.0025,0.02,0.02,-0.04,0.02,0.0,0.0,0.0,0.02,0.0,0.0,0.0,0.02,-0.6032988281249999,0.47880859374999996,9.825152343749998,0.04,0.0,0.0,0.0,0.04,0.0,0.0,0.0,0.04
1614726815.8383265,3732,1614726815,837882041,base_imu_link,-0.004468373102744182,0.04361655507272977,0.6940701764682726,0.7185709567625893,0.0025,0.0,0.0,0.0,0.0025,0.0,0.0,0.0,0.0025,0.01,0.01,-0.04,0.02,0.0,0.0,0.0,0.02,0.0,0.0,0.0,0.02,-0.59372265625,0.4550596875,9.901761718749999,0.04,0.0,0.0,0.0,0.04,0.0,0.0,0.0,0.04
1614726815.8583395,3733,1614726815,857902050,base_imu_link,-0.004715715819583622,0.04312876663694552,0.6939750009967836,0.7186907328637256,0.0025,0.0,0.0,0.0,0.0025,0.0,0.0,0.0,0.0025,0.0,0.01,-0.04,0.02,0.0,0.0,0.0,0.02,0.0,0.0,0.0,0.02,-0.58912609375,0.47421203125,9.940066406249999,0.04,0.0,0.0,0.0,0.04,0.0,0.0,0.0,0.04
1614726815.878404,3734,1614726815,877932071,base_imu_link,-0.004697839743949016,0.04263896347197693,0.6935657227784862,0.7191150375861511,0.0025,0.0,0.0,0.0,0.0025,0.0,0.0,0.0,0.0025,0.0,0.0,-0.04,0.02,0.0,0.0,0.0,0.02,0.0,0.0,0.0,0.02,-0.5841464843749999,0.4979609375,9.930490234374998,0.04,0.0,0.0,0.0,0.04,0.0,0.0,0.0,0.04
1614726815.8984234,3735,1614726815,897983074,base_imu_link,-0.0046340502575485075,0.04233077925296082,0.6934586915733622,0.7192368690406578,0.0025,0.0,0.0,0.0,0.0025,0.0,0.0,0.0,0.0025,0.01,0.0,-0.04,0.02,0.0,0.0,0.0,0.02,0.0,0.0,0.0,0.02,-0.58912609375,0.502940546875,9.901761718749999,0.04,0.0,0.0,0.0,0.04,0.0,0.0,0.0,0.04
1614726815.9182415,3736,1614726815,917748689,base_imu_link,-0.004507592688312138,0.04208307220642293,0.6933478348993515,0.7193590733995138,0.0025,0.0,0.0,0.0,0.0025,0.0,0.0,0.0,0.0025,0.01,-0.0,-0.04,0.02,0.0,0.0,0.0,0.02,0.0,0.0,0.0,0.02,-0.598702265625,0.507537109375,9.897165156249999,0.04,0.0,0.0,0.0,0.04,0.0,0.0,0.0,0.04
1614726815.938316,3737,1614726815,937854290,base_imu_link,-0.004311122797096317,0.04189656643670506,0.6931076338307839,0.7196025985684983,0.0025,0.0,0.0,0.0,0.0025,0.0,0.0,0.0,0.0025,0.01,-0.01,-0.04,0.02,0.0,0.0,0.0,0.02,0.0,0.0,0.0,0.02,-0.6082784375,0.55082140625,9.897165156249999,0.04,0.0,0.0,0.0,0.04,0.0,0.0,0.0,0.04
1614726815.9584408,3738,1614726815,958009481,base_imu_link,-0.00405196495924403,0.041770389703496794,0.6928636572270302,0.7198463507012945,0.0025,0.0,0.0,0.0,0.0025,0.0,0.0,0.0,0.0025,0.0,-0.01,-0.04,0.02,0.0,0.0,0.0,0.02,0.0,0.0,0.0,0.02,-0.6320273437499999,0.58912609375,9.8780128125,0.04,0.0,0.0,0.0,0.04,0.0,0.0,0.0,0.04
1614726815.9785247,3739,1614726815,978043794,base_imu_link,-0.0037992822380450153,0.04188939757086829,0.6927935204206732,0.719908314918473,0.0025,0.0,0.0,0.0,0.0025,0.0,0.0,0.0,0.0025,0.0,-0.02,-0.03,0.02,0.0,0.0,0.0,0.02,0.0,0.0,0.0,0.02,-0.641603515625,0.5412452343749999,9.892185546875,0.04,0.0,0.0,0.0,0.04,0.0,0.0,0.0,0.04
1614726815.9985394,3740,1614726815,998096704,base_imu_link,-0.0036043759700896197,0.0418253618354245,0.6926086488885431,0.7200909019464061,0.0025,0.0,0.0,0.0,0.0025,0.0,0.0,0.0,0.0025,0.01,-0.02,-0.03,0.02,0.0,0.0,0.0,0.02,0.0,0.0,0.0,0.02,-0.646200078125,0.507537109375,9.8872059375,0.04,0.0,0.0,0.0,0.04,0.0,0.0,0.0,0.04
1614726816.0185933,3741,1614726816,18152713,base_imu_link,-0.00360666582628524,0.04170218438435844,0.6926159238296545,0.7200910371868162,0.0025,0.0,0.0,0.0,0.0025,0.0,0.0,0.0,0.0025,0.01,-0.03,-0.03,0.02,0.0,0.0,0.0,0.02,0.0,0.0,0.0,0.02,-0.665352421875,0.55082140625,9.8443046875,0.04,0.0,0.0,0.0,0.04,0.0,0.0,0.0,0.04
1614726816.0386136,3742,1614726816,38171291,base_imu_link,-0.0034736866214747364,0.04182367494150501,0.6924829446248439,0.7202125277439627,0.0025,0.0,0.0,0.0,0.0025,0.0,0.0,0.0,0.0025,0.01,-0.02,-0.02,0.02,0.0,0.0,0.0,0.02,0.0,0.0,0.0,0.02,-0.699060546875,0.612875,9.815576171875,0.04,0.0,0.0,0.0,0.04,0.0,0.0,0.0,0.04
1614726816.0586777,3743,1614726816,58201789,base_imu_link,-0.0033336666747256147,0.0423146375237231,0.6923279048573538,0.720333554871328,0.0025,0.0,0.0,0.0,0.0025,0.0,0.0,0.0,0.0025,0.01,-0.02,-0.01,0.02,0.0,0.0,0.0,0.02,0.0,0.0,0.0,0.02,-0.699060546875,0.58912609375,9.810596562499999,0.04,0.0,0.0,0.0,0.04,0.0,0.0,0.0,0.04
1614726816.0786562,3744,1614726816,78202009,base_imu_link,-0.003151608092840607,0.04274139879665953,0.6924905117374258,0.7201528527673636,0.0025,0.0,0.0,0.0,0.0025,0.0,0.0,0.0,0.0025,0.02,-0.02,-0.01,0.02,0.0,0.0,0.0,0.02,0.0,0.0,0.0,0.02,-0.6940809375,0.5316690625,9.82974890625,0.04,0.0,0.0,0.0,0.04,0.0,0.0,0.0,0.04
1614726816.0987468,3745,1614726816,98278999,base_imu_link,-0.0032196235410926893,0.04280357313125475,0.6926124718446839,0.720031563194731,0.0025,0.0,0.0,0.0,0.0025,0.0,0.0,0.0,0.0025,0.01,-0.03,-0.01,0.02,0.0,0.0,0.0,0.02,0.0,0.0,0.0,0.02,-0.699060546875,0.560397578125,9.815576171875,0.04,0.0,0.0,0.0,0.04,0.0,0.0,0.0,0.04
1614726816.1189044,3746,1614726816,118433713,base_imu_link,-0.0032779003508971415,0.04298946326903086,0.6926012676622134,0.7200310031171053,0.0025,0.0,0.0,0.0,0.0025,0.0,0.0,0.0,0.0025,0.01,-0.03,-0.01,0.02,0.0,0.0,0.0,0.02,0.0,0.0,0.0,0.02,-0.6894843749999999,0.536265625,9.782251093749998,0.04,0.0,0.0,0.0,0.04,0.0,0.0,0.0,0.04
1614726816.1389384,3747,1614726816,138501405,base_imu_link,-0.0032718591955224093,0.043112913068314815,0.6925309298032212,0.7200913018014138,0.0025,0.0,0.0,0.0,0.0025,0.0,0.0,0.0,0.0025,0.01,-0.02,-0.01,0.02,0.0,0.0,0.0,0.02,0.0,0.0,0.0,0.02,-0.6940809375,0.5745703124999999,9.75313953125,0.04,0.0,0.0,0.0,0.04,0.0,0.0,0.0,0.04
1614726816.1591637,3748,1614726816,158714294,base_imu_link,-0.003331619568452758,0.043421673435630206,0.6925749278781167,0.7200301576057228,0.0025,0.0,0.0,0.0,0.0025,0.0,0.0,0.0,0.0025,0.01,-0.01,0.0,0.02,0.0,0.0,0.0,0.02,0.0,0.0,0.0,0.02,-0.699060546875,0.6174715625,9.767695312499999,0.04,0.0,0.0,0.0,0.04,0.0,0.0,0.0,0.04
1614726816.179196,3749,1614726816,178761243,base_imu_link,-0.003157691125394678,0.043847927717428126,0.6928624053098955,0.7197284734744278,0.0025,0.0,0.0,0.0,0.0025,0.0,0.0,0.0,0.0025,0.01,-0.01,0.01,0.02,0.0,0.0,0.0,0.02,0.0,0.0,0.0,0.02,-0.6940809375,0.579549921875,9.772291874999999,0.04,0.0,0.0,0.0,0.04,0.0,0.0,0.0,0.04
1614726816.1992104,3750,1614726816,198762416,base_imu_link,-0.0031703095284313157,0.04421601211758843,0.6931533618585655,0.7194256809108776,0.0025,0.0,0.0,0.0,0.0025,0.0,0.0,0.0,0.0025,0.01,-0.01,0.01,0.02,0.0,0.0,0.0,0.02,0.0,0.0,0.0,0.02,-0.684504765625,0.545841796875,9.82974890625,0.04,0.0,0.0,0.0,0.04,0.0,0.0,0.0,0.04
1614726816.2193358,3751,1614726816,218817472,base_imu_link,-0.0033052779652570606,0.04421732367562299,0.6933416954614957,0.7192434892017558,0.0025,0.0,0.0,0.0,0.0025,0.0,0.0,0.0,0.0025,0.01,-0.01,0.02,0.02,0.0,0.0,0.0,0.02,0.0,0.0,0.0,0.02,-0.699060546875,0.5554179687499999,9.892185546875,0.04,0.0,0.0,0.0,0.04,0.0,0.0,0.0,0.04
1614726816.2393053,3752,1614726816,238821744,base_imu_link,-0.003440247173604402,0.04421856759259905,0.6935299815454483,0.7190612266539013,0.0025,0.0,0.0,0.0,0.0025,0.0,0.0,0.0,0.0025,0.01,-0.02,0.02,0.02,0.0,0.0,0.0,0.02,0.0,0.0,0.0,0.02,-0.67033203125,0.4979609375,9.839708125,0.04,0.0,0.0,0.0,0.04,0.0,0.0,0.0,0.04
1614726816.259273,3753,1614726816,258841753,base_imu_link,-0.0035793660231977567,0.043973430954322504,0.6937335873002379,0.7188791521253907,0.0025,0.0,0.0,0.0,0.0025,0.0,0.0,0.0,0.0025,0.01,-0.01,0.01,0.02,0.0,0.0,0.0,0.02,0.0,0.0,0.0,0.02,-0.6511796875,0.430927734375,9.8014034375,0.04,0.0,0.0,0.0,0.04,0.0,0.0,0.0,0.04
1614726816.2795389,3754,1614726816,279047250,base_imu_link,-0.003906511008073148,0.04354654537580021,0.6939484838701804,0.7186959992179276,0.0025,0.0,0.0,0.0,0.0025,0.0,0.0,0.0,0.0025,0.01,-0.01,0.01,0.02,0.0,0.0,0.0,0.02,0.0,0.0,0.0,0.02,-0.6607558593749999,0.430927734375,9.79144421875,0.04,0.0,0.0,0.0,0.04,0.0,0.0,0.0,0.04
1614726816.299437,3755,1614726816,298924207,base_imu_link,-0.004335946400885915,0.043246552644134614,0.6938419868164143,0.7188144632545018,0.0025,0.0,0.0,0.0,0.0025,0.0,0.0,0.0,0.0025,0.02,-0.01,-0.0,0.02,0.0,0.0,0.0,0.02,0.0,0.0,0.0,0.02,-0.6607558593749999,0.43590734375,9.82974890625,0.04,0.0,0.0,0.0,0.04,0.0,0.0,0.0,0.04
1614726816.3195548,3756,1614726816,318995952,base_imu_link,-0.004594365319232036,0.043003552258118985,0.6939824863899718,0.718691794084564,0.0025,0.0,0.0,0.0,0.0025,0.0,0.0,0.0,0.0025,0.02,-0.01,-0.01,0.02,0.0,0.0,0.0,0.02,0.0,0.0,0.0,0.02,-0.6607558593749999,0.44050390624999997,9.834728515624999,0.04,0.0,0.0,0.0,0.04,0.0,0.0,0.0,0.04
1614726816.3394768,3757,1614726816,338947772,base_imu_link,-0.004831966063841155,0.04288574140221517,0.6938018208591447,0.718871684420019,0.0025,0.0,0.0,0.0,0.0025,0.0,0.0,0.0,0.0025,0.03,-0.0,-0.02,0.02,0.0,0.0,0.0,0.02,0.0,0.0,0.0,0.02,-0.665352421875,0.507537109375,9.848901249999999,0.04,0.0,0.0,0.0,0.04,0.0,0.0,0.0,0.04
1614726816.3594782,3758,1614726816,359007596,base_imu_link,-0.004765484867867556,0.04294670290002853,0.6937353396631711,0.7189326459178323,0.0025,0.0,0.0,0.0,0.0025,0.0,0.0,0.0,0.0025,0.02,-0.01,-0.01,0.02,0.0,0.0,0.0,0.02,0.0,0.0,0.0,0.02,-0.6799082031249999,0.5554179687499999,9.853880859375,0.04,0.0,0.0,0.0,0.04,0.0,0.0,0.0,0.04
1614726816.3795154,3759,1614726816,379081964,base_imu_link,-0.004643765733514823,0.04306737682242399,0.693790569622215,0.7188729247904181,0.0025,0.0,0.0,0.0,0.0025,0.0,0.0,0.0,0.0025,0.01,-0.01,-0.0,0.02,0.0,0.0,0.0,0.02,0.0,0.0,0.0,0.02,-0.684504765625,0.560397578125,9.810596562499999,0.04,0.0,0.0,0.0,0.04,0.0,0.0,0.0,0.04
1614726816.3996809,3760,1614726816,399259567,base_imu_link,-0.004582731953225869,0.043250687962735956,0.6938420171304259,0.7188126541895161,0.0025,0.0,0.0,0.0,0.0025,0.0,0.0,0.0,0.0025,0.01,-0.01,0.0,0.02,0.0,0.0,0.0,0.02,0.0,0.0,0.0,0.02,-0.6894843749999999,0.5554179687499999,9.834728515624999,0.04,0.0,0.0,0.0,0.04,0.0,0.0,0.0,0.04
1614726816.4197426,3761,1614726816,419305562,base_imu_link,-0.004521730211529327,0.04343400712309041,0.693893411125565,0.7187523738935774,0.0025,0.0,0.0,0.0,0.0025,0.0,0.0,0.0,0.0025,0.01,-0.01,0.0,0.02,0.0,0.0,0.0,0.02,0.0,0.0,0.0,0.02,-0.7086367187499999,0.560397578125,9.834728515624999,0.04,0.0,0.0,0.0,0.04,0.0,0.0,0.0,0.04
1614726816.439891,3762,1614726816,439498424,base_imu_link,-0.004460760509781645,0.043617334286636195,0.693944751606569,0.7186920839157056,0.0025,0.0,0.0,0.0,0.0025,0.0,0.0,0.0,0.0025,0.01,-0.01,0.01,0.02,0.0,0.0,0.0,0.02,0.0,0.0,0.0,0.02,-0.7277890625,0.560397578125,9.8014034375,0.04,0.0,0.0,0.0,0.04,0.0,0.0,0.0,0.04
