Time,header.seq,header.stamp.secs,header.stamp.nsecs,header.frame_id,orientation.x,orientation.y,orientation.z,orientation.w,orientation_covariance_0,orientation_covariance_1,orientation_covariance_2,orientation_covariance_3,orientation_covariance_4,orientation_covariance_5,orientation_covariance_6,orientation_covariance_7,orientation_covariance_8,angular_velocity.x,angular_velocity.y,angular_velocity.z,angular_velocity_covariance_0,angular_velocity_covariance_1,angular_velocity_covariance_2,angular_velocity_covariance_3,angular_velocity_covariance_4,angular_velocity_covariance_5,angular_velocity_covariance_6,angular_velocity_covariance_7,angular_velocity_covariance_8,linear_acceleration.x,linear_acceleration.y,linear_acceleration.z,linear_acceleration_covariance_0,linear_acceleration_covariance_1,linear_acceleration_covariance_2,linear_acceleration_covariance_3,linear_acceleration_covariance_4,linear_acceleration_covariance_5,linear_acceleration_covariance_6,linear_acceleration_covariance_7,linear_acceleration_covariance_8
1614727016.076621,13717,1614727016,76102733,base_imu_link,-0.026120460379707944,0.06414120404909615,0.29150135592286125,0.954060054183078,0.0025,0.0,0.0,0.0,0.0025,0.0,0.0,0.0,0.0025,0.01,-0.01,0.02,0.02,0.0,0.0,0.0,0.02,0.0,0.0,0.0,0.02,-1.3215117187499998,-0.19650304687499998,9.652781249999999,0.04,0.0,0.0,0.0,0.04,0.0,0.0,0.0,0.04
1614727016.0967453,13718,1614727016,96288204,base_imu_link,-0.026384399747252978,0.06415277249073098,0.2913504086121309,0.9540981210720805,0.0025,0.0,0.0,0.0,0.0025,0.0,0.0,0.0,0.0025,0.01,-0.0,0.01,0.02,0.0,0.0,0.0,0.02,0.0,0.0,0.0,0.02,-1.350240234375,-0.181947265625,9.62903234375,0.04,0.0,0.0,0.0,0.04,0.0,0.0,0.0,0.04
1614727016.1169546,13719,1614727016,116506338,base_imu_link,-0.0267102245521424,0.0643263449993372,0.29136361193158705,0.9540733362198003,0.0025,0.0,0.0,0.0,0.0025,0.0,0.0,0.0,0.0025,0.01,0.0,0.01,0.02,0.0,0.0,0.0,0.02,0.0,0.0,0.0,0.02,-1.3598164062499998,-0.17237109374999998,9.662357421874999,0.04,0.0,0.0,0.0,0.04,0.0,0.0,0.0,0.04
1614727016.1369183,13720,1614727016,136442899,base_imu_link,-0.027058549403598108,0.0644904692845266,0.291709914082478,0.9539466129200459,0.0025,0.0,0.0,0.0,0.0025,0.0,0.0,0.0,0.0025,0.01,0.01,0.0,0.02,0.0,0.0,0.0,0.02,0.0,0.0,0.0,0.02,-1.3789687499999999,-0.124490234375,9.7247940625,0.04,0.0,0.0,0.0,0.04,0.0,0.0,0.0,0.04
1614727016.1570017,13721,1614727016,156556844,base_imu_link,-0.02715161967994942,0.0647331788387207,0.29195607934668755,0.9538522175047349,0.0025,0.0,0.0,0.0,0.0025,0.0,0.0,0.0,0.0025,0.0,0.0,0.01,0.02,0.0,0.0,0.0,0.02,0.0,0.0,0.0,0.02,-1.39812109375,-0.0720128125,9.825152343749998,0.04,0.0,0.0,0.0,0.04,0.0,0.0,0.0,0.04
1614727016.1768172,13722,1614727016,176388502,base_imu_link,-0.02689485287359481,0.06508487676163785,0.2919297908388676,0.9538436050666824,0.0025,0.0,0.0,0.0,0.0025,0.0,0.0,0.0,0.0025,0.0,-0.0,0.02,0.02,0.0,0.0,0.0,0.02,0.0,0.0,0.0,0.02,-1.383948359375,-0.05286046874999999,9.834728515624999,0.04,0.0,0.0,0.0,0.04,0.0,0.0,0.0,0.04
1614727016.196987,13723,1614727016,196563720,base_imu_link,-0.026563685097225252,0.06536487229153884,0.29239822202353044,0.9536902452378573,0.0025,0.0,0.0,0.0,0.0025,0.0,0.0,0.0,0.0025,0.01,0.0,0.03,0.02,0.0,0.0,0.0,0.02,0.0,0.0,0.0,0.02,-1.3693925781249998,-0.067033203125,9.825152343749998,0.04,0.0,0.0,0.0,0.04,0.0,0.0,0.0,0.04
1614727016.2170718,13724,1614727016,216622114,base_imu_link,-0.026270769367146625,0.06545089885415563,0.2929579148258121,0.9535206797217108,0.0025,0.0,0.0,0.0,0.0025,0.0,0.0,0.0,0.0025,0.01,-0.01,0.03,0.02,0.0,0.0,0.0,0.02,0.0,0.0,0.0,0.02,-1.3789687499999999,-0.05745703125,9.810596562499999,0.04,0.0,0.0,0.0,0.04,0.0,0.0,0.0,0.04
1614727016.2370496,13725,1614727016,236620187,base_imu_link,-0.0259322055756249,0.06555541972971358,0.2928518380173643,0.95355535163298,0.0025,0.0,0.0,0.0,0.0025,0.0,0.0,0.0,0.0025,0.01,-0.02,0.02,0.02,0.0,0.0,0.0,0.02,0.0,0.0,0.0,0.02,-1.3360675,-0.10533789062499999,9.705641718749998,0.04,0.0,0.0,0.0,0.04,0.0,0.0,0.0,0.04
1614727016.2570975,13726,1614727016,256658792,base_imu_link,-0.025780882972786662,0.06542125954318849,0.2925991389826709,0.9536462387801494,0.0025,0.0,0.0,0.0,0.0025,0.0,0.0,0.0,0.0025,0.01,-0.02,0.01,0.02,0.0,0.0,0.0,0.02,0.0,0.0,0.0,0.02,-1.302359375,-0.139046015625,9.652781249999999,0.04,0.0,0.0,0.0,0.04,0.0,0.0,0.0,0.04
1614727016.277079,13727,1614727016,276669979,base_imu_link,-0.025870918171177038,0.0651204643096676,0.2926145029448665,0.9536596737764487,0.0025,0.0,0.0,0.0,0.0025,0.0,0.0,0.0,0.0025,0.01,-0.01,0.0,0.02,0.0,0.0,0.0,0.02,0.0,0.0,0.0,0.02,-1.3119355468749998,-0.15321875,9.62903234375,0.04,0.0,0.0,0.0,0.04,0.0,0.0,0.0,0.04
1614727016.2971122,13728,1614727016,296686649,base_imu_link,-0.02608944796217473,0.06496288941106117,0.2925496083685724,0.9536843766927243,0.0025,0.0,0.0,0.0,0.0025,0.0,0.0,0.0,0.0025,0.01,-0.01,0.0,0.02,0.0,0.0,0.0,0.02,0.0,0.0,0.0,0.02,-1.3360675,-0.11031749999999999,9.71023828125,0.04,0.0,0.0,0.0,0.04,0.0,0.0,0.0,0.04
1614727016.3171854,13729,1614727016,316749572,base_imu_link,-0.026047000827908836,0.0648864646552861,0.29230121055002267,0.9537669016921275,0.0025,0.0,0.0,0.0,0.0025,0.0,0.0,0.0,0.0025,0.01,-0.01,0.01,0.02,0.0,0.0,0.0,0.02,0.0,0.0,0.0,0.02,-1.3360675,-0.10074132812499999,9.825152343749998,0.04,0.0,0.0,0.0,0.04,0.0,0.0,0.0,0.04
1614727016.337286,13730,1614727016,336766719,base_imu_link,-0.02591853924838211,0.06474320420896824,0.2923813592454038,0.9537555701529592,0.0025,0.0,0.0,0.0,0.0025,0.0,0.0,0.0,0.0025,0.01,-0.01,0.01,0.02,0.0,0.0,0.0,0.02,0.0,0.0,0.0,0.02,-1.3406640625,-0.11989367187499998,9.8780128125,0.04,0.0,0.0,0.0,0.04,0.0,0.0,0.0,0.04
1614727016.357405,13731,1614727016,356977939,base_imu_link,-0.02580564321224306,0.06460150135780351,0.2914682460125218,0.9540476803426045,0.0025,0.0,0.0,0.0,0.0025,0.0,0.0,0.0,0.0025,0.01,-0.02,0.01,0.02,0.0,0.0,0.0,0.02,0.0,0.0,0.0,0.02,-1.35521984375,-0.10533789062499999,9.86805359375,0.04,0.0,0.0,0.0,0.04,0.0,0.0,0.0,0.04
1614727016.3774443,13732,1614727016,377041339,base_imu_link,-0.025582764597106532,0.06448804939263542,0.2913762887327036,0.9540894465433825,0.0025,0.0,0.0,0.0,0.0025,0.0,0.0,0.0,0.0025,0.01,-0.02,0.02,0.02,0.0,0.0,0.0,0.02,0.0,0.0,0.0,0.02,-1.3406640625,-0.1578153125,9.772291874999999,0.04,0.0,0.0,0.0,0.04,0.0,0.0,0.0,0.04
1614727016.3974788,13733,1614727016,397045612,base_imu_link,-0.025735154748817473,0.0643494225543987,0.291555327610952,0.9540400120375665,0.0025,0.0,0.0,0.0,0.0025,0.0,0.0,0.0,0.0025,0.02,-0.02,0.01,0.02,0.0,0.0,0.0,0.02,0.0,0.0,0.0,0.02,-1.326491328125,-0.17696765625,9.719814453124998,0.04,0.0,0.0,0.0,0.04,0.0,0.0,0.0,0.04
1614727016.4174106,13734,1614727016,416939973,base_imu_link,-0.025834125626297364,0.06413874717437791,0.2913192859924514,0.9541236254662571,0.0025,0.0,0.0,0.0,0.0025,0.0,0.0,0.0,0.0025,0.02,-0.02,-0.0,0.02,0.0,0.0,0.0,0.02,0.0,0.0,0.0,0.02,-1.3119355468749998,-0.20607921875,9.705641718749998,0.04,0.0,0.0,0.0,0.04,0.0,0.0,0.0,0.04
1614727016.4374378,13735,1614727016,436931610,base_imu_link,-0.02618859310210581,0.06384963053831202,0.29118313964106807,0.9541749113554725,0.0025,0.0,0.0,0.0,0.0025,0.0,0.0,0.0,0.0025,0.02,-0.02,-0.01,0.02,0.0,0.0,0.0,0.02,0.0,0.0,0.0,0.02,-1.3169151562499999,-0.22025195312499998,9.67653015625,0.04,0.0,0.0,0.0,0.04,0.0,0.0,0.0,0.04
1614727016.4574218,13736,1614727016,456958532,base_imu_link,-0.0264821407520739,0.06358607370827712,0.2901306494450085,0.9545049574015687,0.0025,0.0,0.0,0.0,0.0025,0.0,0.0,0.0,0.0025,0.01,-0.02,-0.02,0.02,0.0,0.0,0.0,0.02,0.0,0.0,0.0,0.02,-1.3598164062499998,-0.19152343749999998,9.609879999999999,0.04,0.0,0.0,0.0,0.04,0.0,0.0,0.0,0.04
1614727016.477414,13737,1614727016,476984024,base_imu_link,-0.026838023477046127,0.06366315175851626,0.28973405685741643,0.9546103393013095,0.0025,0.0,0.0,0.0,0.0025,0.0,0.0,0.0,0.0025,0.01,-0.02,-0.01,0.02,0.0,0.0,0.0,0.02,0.0,0.0,0.0,0.02,-1.403100703125,-0.14364257812499998,9.561616093749999,0.04,0.0,0.0,0.0,0.04,0.0,0.0,0.0,0.04
1614727016.497714,13738,1614727016,497180938,base_imu_link,-0.02717820755427132,0.06410307593554844,0.290071590980914,0.9544687594654628,0.0025,0.0,0.0,0.0,0.0025,0.0,0.0,0.0,0.0025,0.0,-0.0,-0.01,0.02,0.0,0.0,0.0,0.02,0.0,0.0,0.0,0.02,-1.460557734375,-0.076609375,9.648184687499999,0.04,0.0,0.0,0.0,0.04,0.0,0.0,0.0,0.04
1614727016.5181653,13739,1614727016,517676115,base_imu_link,-0.027203301993945453,0.06500268628307587,0.29037624810583906,0.9543145527930434,0.0025,0.0,0.0,0.0,0.0025,0.0,0.0,0.0,0.0025,-0.01,0.0,0.0,0.02,0.0,0.0,0.0,0.02,0.0,0.0,0.0,0.02,-1.4843066406249998,0.076609375,9.86805359375,0.04,0.0,0.0,0.0,0.04,0.0,0.0,0.0,0.04
1614727016.537722,13740,1614727016,537251472,base_imu_link,-0.026364651085953737,0.06570944924613266,0.29080128211078876,0.9541602526701725,0.0025,0.0,0.0,0.0,0.0025,0.0,0.0,0.0,0.0025,0.0,-0.02,0.02,0.02,0.0,0.0,0.0,0.02,0.0,0.0,0.0,0.02,-1.55133984375,0.201099609375,10.035828124999998,0.04,0.0,0.0,0.0,0.04,0.0,0.0,0.0,0.04
1614727016.5577269,13741,1614727016,557276725,base_imu_link,-0.02479046584933273,0.06636833206690454,0.2912661217868831,0.9540150541793659,0.0025,0.0,0.0,0.0,0.0025,0.0,0.0,0.0,0.0025,0.02,-0.06,0.04,0.02,0.0,0.0,0.0,0.02,0.0,0.0,0.0,0.02,-1.5321874999999998,0.0720128125,9.810596562499999,0.04,0.0,0.0,0.0,0.04,0.0,0.0,0.0,0.04
1614727016.5779402,13742,1614727016,577499628,base_imu_link,-0.0238850466186286,0.06691685873772567,0.2914416319525446,0.9539462320956767,0.0025,0.0,0.0,0.0,0.0025,0.0,0.0,0.0,0.0025,0.02,-0.06,0.04,0.02,0.0,0.0,0.0,0.02,0.0,0.0,0.0,0.02,-1.498862421875,-0.09576171874999999,9.518714843749999,0.04,0.0,0.0,0.0,0.04,0.0,0.0,0.0,0.04
1614727016.598023,13743,1614727016,597525596,base_imu_link,-0.02407763614601419,0.06731402303708751,0.2911900739228822,0.9539902675546376,0.0025,0.0,0.0,0.0,0.0025,0.0,0.0,0.0,0.0025,0.02,-0.04,0.02,0.02,0.0,0.0,0.0,0.02,0.0,0.0,0.0,0.02,-1.455578125,-0.14862218749999997,9.394224609375,0.04,0.0,0.0,0.0,0.04,0.0,0.0,0.0,0.04
1614727016.6181726,13744,1614727016,617676496,base_imu_link,-0.024577683239681514,0.06752645119565581,0.29096365234860194,0.9540315869442962,0.0025,0.0,0.0,0.0,0.0025,0.0,0.0,0.0,0.0025,0.0,-0.03,0.02,0.02,0.0,0.0,0.0,0.02,0.0,0.0,0.0,0.02,-1.3360675,-0.1149140625,9.451681640624999,0.04,0.0,0.0,0.0,0.04,0.0,0.0,0.0,0.04
1614727016.6383648,13745,1614727016,637928485,base_imu_link,-0.02493153515581737,0.06723730004716612,0.2908295077273325,0.9540837287535193,0.0025,0.0,0.0,0.0,0.0025,0.0,0.0,0.0,0.0025,-0.02,-0.02,0.01,0.02,0.0,0.0,0.0,0.02,0.0,0.0,0.0,0.02,-1.302359375,-0.06243664062499999,9.681509765625,0.04,0.0,0.0,0.0,0.04,0.0,0.0,0.0,0.04
1614727016.6584303,13746,1614727016,657976150,base_imu_link,-0.02502934762350693,0.06666149684864191,0.29085571119426823,0.9541135843604348,0.0025,0.0,0.0,0.0,0.0025,0.0,0.0,0.0,0.0025,-0.03,-0.02,0.02,0.02,0.0,0.0,0.0,0.02,0.0,0.0,0.0,0.02,-1.3360675,-0.04290125,9.863457031249999,0.04,0.0,0.0,0.0,0.04,0.0,0.0,0.0,0.04
1614727016.6784205,13747,1614727016,677947759,base_imu_link,-0.025003304781700625,0.06621317155598756,0.29111838947857693,0.9540653719582796,0.0025,0.0,0.0,0.0,0.0025,0.0,0.0,0.0,0.0025,-0.03,-0.03,0.02,0.02,0.0,0.0,0.0,0.02,0.0,0.0,0.0,0.02,-1.403100703125,-0.04290125,9.954622187499998,0.04,0.0,0.0,0.0,0.04,0.0,0.0,0.0,0.04
1614727016.6985795,13748,1614727016,698010921,base_imu_link,-0.024861268303698617,0.0659822442817116,0.29136662617385195,0.9540093028529368,0.0025,0.0,0.0,0.0,0.0025,0.0,0.0,0.0,0.0025,-0.01,-0.03,0.03,0.02,0.0,0.0,0.0,0.02,0.0,0.0,0.0,0.02,-1.39352453125,-0.05745703125,10.007099609374999,0.04,0.0,0.0,0.0,0.04,0.0,0.0,0.0,0.04
1614727016.718361,13749,1614727016,717854022,base_imu_link,-0.024616195422957305,0.0656914275373851,0.29169380578238524,0.9539357436112704,0.0025,0.0,0.0,0.0,0.0025,0.0,0.0,0.0,0.0025,0.01,-0.05,0.03,0.02,0.0,0.0,0.0,0.02,0.0,0.0,0.0,0.02,-1.3215117187499998,-0.09576171874999999,9.97377453125,0.04,0.0,0.0,0.0,0.04,0.0,0.0,0.0,0.04
1614727016.7384753,13750,1614727016,738044261,base_imu_link,-0.024309969084370508,0.06496538253622408,0.29178409245436204,0.9539657058121237,0.0025,0.0,0.0,0.0,0.0025,0.0,0.0,0.0,0.0025,0.01,-0.06,0.03,0.02,0.0,0.0,0.0,0.02,0.0,0.0,0.0,0.02,-1.27861046875,-0.14862218749999997,9.825152343749998,0.04,0.0,0.0,0.0,0.04,0.0,0.0,0.0,0.04
1614727016.7585864,13751,1614727016,758100032,base_imu_link,-0.024185747937894502,0.06400273792097426,0.29164412256373784,0.9540767290471616,0.0025,0.0,0.0,0.0,0.0025,0.0,0.0,0.0,0.0025,0.03,-0.06,0.02,0.02,0.0,0.0,0.0,0.02,0.0,0.0,0.0,0.02,-1.22575,-0.21565539062499997,9.662357421874999,0.04,0.0,0.0,0.0,0.04,0.0,0.0,0.0,0.04
1614727016.7785532,13752,1614727016,778021812,base_imu_link,-0.024362437225301743,0.06313023665118843,0.29151739965857787,0.9541690890869968,0.0025,0.0,0.0,0.0,0.0025,0.0,0.0,0.0,0.0025,0.03,-0.05,0.01,0.02,0.0,0.0,0.0,0.02,0.0,0.0,0.0,0.02,-1.173272578125,-0.27770898437499997,9.45666125,0.04,0.0,0.0,0.0,0.04,0.0,0.0,0.0,0.04
1614727016.7984347,13753,1614727016,797937631,base_imu_link,-0.024937764465462094,0.06241025149047175,0.291241241385389,0.9542859150844986,0.0025,0.0,0.0,0.0,0.0025,0.0,0.0,0.0,0.0025,0.02,-0.01,-0.03,0.02,0.0,0.0,0.0,0.02,0.0,0.0,0.0,0.02,-1.139564453125,-0.349721796875,9.422953125,0.04,0.0,0.0,0.0,0.04,0.0,0.0,0.0,0.04
1614727016.8184364,13754,1614727016,817954063,base_imu_link,-0.025928479237918297,0.061658274364249546,0.2905733104973177,0.9545119812728707,0.0025,0.0,0.0,0.0,0.0025,0.0,0.0,0.0,0.0025,0.02,-0.0,-0.06,0.02,0.0,0.0,0.0,0.02,0.0,0.0,0.0,0.02,-1.12998828125,-0.36389453125,9.638225468749999,0.04,0.0,0.0,0.0,0.04,0.0,0.0,0.0,0.04
1614727016.8385,13755,1614727016,838068723,base_imu_link,-0.026980932398454355,0.06052615230848362,0.2898349157168923,0.9547797315637896,0.0025,0.0,0.0,0.0,0.0025,0.0,0.0,0.0,0.0025,0.01,-0.01,-0.09,0.02,0.0,0.0,0.0,0.02,0.0,0.0,0.0,0.02,-1.1924249218749998,-0.35431835937499995,9.738966796875,0.04,0.0,0.0,0.0,0.04,0.0,0.0,0.0,0.04
1614727016.8584523,13756,1614727016,858040094,base_imu_link,-0.027932739109109837,0.05979676139551049,0.2884962179590671,0.9552036650033255,0.0025,0.0,0.0,0.0,0.0025,0.0,0.0,0.0,0.0025,0.0,-0.01,-0.11,0.02,0.0,0.0,0.0,0.02,0.0,0.0,0.0,0.02,-1.230729609375,-0.330569453125,9.758119140624999,0.04,0.0,0.0,0.0,0.04,0.0,0.0,0.0,0.04
1614727016.8788912,13757,1614727016,878404617,base_imu_link,-0.028677932440034786,0.05958758833999632,0.28713093715072646,0.9556059441201344,0.0025,0.0,0.0,0.0,0.0025,0.0,0.0,0.0,0.0025,0.01,0.01,-0.1,0.02,0.0,0.0,0.0,0.02,0.0,0.0,0.0,0.02,-1.2736308593749999,-0.23480773437499997,9.930490234374998,0.04,0.0,0.0,0.0,0.04,0.0,0.0,0.0,0.04
1614727016.8989208,13758,1614727016,898463010,base_imu_link,-0.028753860894826913,0.05975701236825358,0.2862171712492168,0.9558671695578617,0.0025,0.0,0.0,0.0,0.0025,0.0,0.0,0.0,0.0025,0.03,0.02,-0.09,0.02,0.0,0.0,0.0,0.02,0.0,0.0,0.0,0.02,-1.288186640625,-0.13406640625,10.16989453125,0.04,0.0,0.0,0.0,0.04,0.0,0.0,0.0,0.04
1614727016.9187346,13759,1614727016,918325424,base_imu_link,-0.028088920463868593,0.05977965809253631,0.28568169035295016,0.9560456980827825,0.0025,0.0,0.0,0.0,0.0025,0.0,0.0,0.0,0.0025,0.04,-0.01,-0.06,0.02,0.0,0.0,0.0,0.02,0.0,0.0,0.0,0.02,-1.326491328125,-0.023748906249999997,10.21279578125,0.04,0.0,0.0,0.0,0.04,0.0,0.0,0.0,0.04
1614727016.9387927,13760,1614727016,938352346,base_imu_link,-0.027032850387849444,0.05991422489767565,0.2855372785612591,0.9561108582202426,0.0025,0.0,0.0,0.0,0.0025,0.0,0.0,0.0,0.0025,0.04,-0.03,-0.03,0.02,0.0,0.0,0.0,0.02,0.0,0.0,0.0,0.02,-1.345643671875,-0.10533789062499999,9.8872059375,0.04,0.0,0.0,0.0,0.04,0.0,0.0,0.0,0.04
1614727016.9588373,13761,1614727016,958392381,base_imu_link,-0.026493182202335413,0.06025787873396023,0.28541530557741174,0.9561407860192085,0.0025,0.0,0.0,0.0,0.0025,0.0,0.0,0.0,0.0025,0.03,-0.02,-0.02,0.02,0.0,0.0,0.0,0.02,0.0,0.0,0.0,0.02,-1.3693925781249998,-0.17237109374999998,9.585748046874999,0.04,0.0,0.0,0.0,0.04,0.0,0.0,0.0,0.04
1614727016.9788258,13762,1614727016,978368520,base_imu_link,-0.02657636384713823,0.06096441978132476,0.28490172510782413,0.9562468527718021,0.0025,0.0,0.0,0.0,0.0025,0.0,0.0,0.0,0.0025,0.03,-0.0,-0.02,0.02,0.0,0.0,0.0,0.02,0.0,0.0,0.0,0.02,-1.35521984375,-0.10533789062499999,9.5041590625,0.04,0.0,0.0,0.0,0.04,0.0,0.0,0.0,0.04
1614727016.9987617,13763,1614727016,998332500,base_imu_link,-0.02638748540782356,0.06183767489400233,0.2849494449133204,0.9561817904672449,0.0025,0.0,0.0,0.0,0.0025,0.0,0.0,0.0,0.0025,0.04,0.01,-0.02,0.02,0.0,0.0,0.0,0.02,0.0,0.0,0.0,0.02,-1.345643671875,0.04290125,9.604900390625,0.04,0.0,0.0,0.0,0.04,0.0,0.0,0.0,0.04
1614727017.0190482,13764,1614727017,18628358,base_imu_link,-0.025262658276989106,0.06272023367607568,0.2845276478221316,0.9562802873683026,0.0025,0.0,0.0,0.0,0.0025,0.0,0.0,0.0,0.0025,0.04,0.01,-0.02,0.02,0.0,0.0,0.0,0.02,0.0,0.0,0.0,0.02,-1.3743721875,0.124490234375,9.767695312499999,0.04,0.0,0.0,0.0,0.04,0.0,0.0,0.0,0.04
1614727017.0389152,13765,1614727017,38471937,base_imu_link,-0.0238514083024867,0.06341125867009934,0.28467529886233023,0.9562270111294203,0.0025,0.0,0.0,0.0,0.0025,0.0,0.0,0.0,0.0025,0.04,-0.01,-0.02,0.02,0.0,0.0,0.0,0.02,0.0,0.0,0.0,0.02,-1.39812109375,0.10533789062499999,9.897165156249999,0.04,0.0,0.0,0.0,0.04,0.0,0.0,0.0,0.04
1614727017.0589626,13766,1614727017,58523416,base_imu_link,-0.022696791441936058,0.06384643087193917,0.28442933020111283,0.9562993490766907,0.0025,0.0,0.0,0.0,0.0025,0.0,0.0,0.0,0.0025,0.03,-0.04,-0.02,0.02,0.0,0.0,0.0,0.02,0.0,0.0,0.0,0.02,-1.407697265625,0.1149140625,9.940066406249999,0.04,0.0,0.0,0.0,0.04,0.0,0.0,0.0,0.04
1614727017.0788555,13767,1614727017,78532934,base_imu_link,-0.021592695087789937,0.06408371696371842,0.2844416472288814,0.9563053811731274,0.0025,0.0,0.0,0.0,0.0025,0.0,0.0,0.0,0.0025,0.03,-0.05,-0.01,0.02,0.0,0.0,0.0,0.02,0.0,0.0,0.0,0.02,-1.350240234375,0.028728515625,9.820555781249999,0.04,0.0,0.0,0.0,0.04,0.0,0.0,0.0,0.04
1614727017.099169,13768,1614727017,98774433,base_imu_link,-0.020961316995023047,0.06418132037400351,0.28407013661226566,0.9564233052315133,0.0025,0.0,0.0,0.0,0.0025,0.0,0.0,0.0,0.0025,0.03,-0.04,-0.01,0.02,0.0,0.0,0.0,0.02,0.0,0.0,0.0,0.02,-1.292783203125,-0.1149140625,9.71023828125,0.04,0.0,0.0,0.0,0.04,0.0,0.0,0.0,0.04
1614727017.119157,13769,1614727017,118811845,base_imu_link,-0.021067543211271047,0.06396847660908507,0.2839174141439991,0.9564805772043358,0.0025,0.0,0.0,0.0,0.0025,0.0,0.0,0.0,0.0025,0.03,-0.02,-0.01,0.02,0.0,0.0,0.0,0.02,0.0,0.0,0.0,0.02,-1.259458125,-0.20607921875,9.6956825,0.04,0.0,0.0,0.0,0.04,0.0,0.0,0.0,0.04
1614727017.139333,13770,1614727017,138910293,base_imu_link,-0.021560931408490337,0.06355024517810248,0.2837103680052313,0.9565588950299598,0.0025,0.0,0.0,0.0,0.0025,0.0,0.0,0.0,0.0025,0.04,-0.02,-0.02,0.02,0.0,0.0,0.0,0.02,0.0,0.0,0.0,0.02,-1.235326171875,-0.17237109374999998,9.662357421874999,0.04,0.0,0.0,0.0,0.04,0.0,0.0,0.0,0.04
1614727017.159395,13771,1614727017,158965110,base_imu_link,-0.021851868002930302,0.0631020445935195,0.28332627450434883,0.956695798050972,0.0025,0.0,0.0,0.0,0.0025,0.0,0.0,0.0,0.0025,0.04,-0.02,-0.01,0.02,0.0,0.0,0.0,0.02,0.0,0.0,0.0,0.02,-1.235326171875,-0.162794921875,9.4995625,0.04,0.0,0.0,0.0,0.04,0.0,0.0,0.0,0.04
1614727017.179692,13772,1614727017,179239511,base_imu_link,-0.022163822900916445,0.06301088169655565,0.28301431960636264,0.9567869609479359,0.0025,0.0,0.0,0.0,0.0025,0.0,0.0,0.0,0.0025,0.02,0.0,-0.01,0.02,0.0,0.0,0.0,0.02,0.0,0.0,0.0,0.02,-1.27861046875,-0.15321875,9.44670203125,0.04,0.0,0.0,0.0,0.04,0.0,0.0,0.0,0.04
1614727017.1998236,13773,1614727017,199399471,base_imu_link,-0.022866045241159476,0.06325751334240269,0.2829626643495303,0.956769440129115,0.0025,0.0,0.0,0.0,0.0025,0.0,0.0,0.0,0.0025,-0.0,0.02,-0.0,0.02,0.0,0.0,0.0,0.02,0.0,0.0,0.0,0.02,-1.302359375,-0.139046015625,9.576171875,0.04,0.0,0.0,0.0,0.04,0.0,0.0,0.0,0.04
1614727017.2198822,13774,1614727017,219437360,base_imu_link,-0.02353152476575259,0.06360422611823814,0.2832384801191261,0.956648698918211,0.0025,0.0,0.0,0.0,0.0025,0.0,0.0,0.0,0.0025,-0.01,0.02,-0.0,0.02,0.0,0.0,0.0,0.02,0.0,0.0,0.0,0.02,-1.3169151562499999,-0.0720128125,9.86805359375,0.04,0.0,0.0,0.0,0.04,0.0,0.0,0.0,0.04
1614727017.2381265,13775,1614727017,237686872,base_imu_link,-0.023567305750211112,0.06368361212167527,0.2834041446452301,0.9565934718806718,0.0025,0.0,0.0,0.0,0.0025,0.0,0.0,0.0,0.0025,-0.01,0.0,0.0,0.02,0.0,0.0,0.0,0.02,0.0,0.0,0.0,0.02,-1.3406640625,-0.0383046875,10.026251953125,0.04,0.0,0.0,0.0,0.04,0.0,0.0,0.0,0.04
1614727017.259961,13776,1614727017,259521484,base_imu_link,-0.023462188237515714,0.06353112404011346,0.28381856583072246,0.9564833211776873,0.0025,0.0,0.0,0.0,0.0025,0.0,0.0,0.0,0.0025,-0.0,-0.02,0.01,0.02,0.0,0.0,0.0,0.02,0.0,0.0,0.0,0.02,-1.3360675,-0.0720128125,9.90635828125,0.04,0.0,0.0,0.0,0.04,0.0,0.0,0.0,0.04
1614727017.2799332,13777,1614727017,279531478,base_imu_link,-0.023414543968363205,0.06363528947848662,0.283978640687245,0.9564300500805938,0.0025,0.0,0.0,0.0,0.0025,0.0,0.0,0.0,0.0025,0.0,-0.01,0.0,0.02,0.0,0.0,0.0,0.02,0.0,0.0,0.0,0.02,-1.350240234375,-0.06243664062499999,9.743946406249998,0.04,0.0,0.0,0.0,0.04,0.0,0.0,0.0,0.04
1614727017.299995,13778,1614727017,299587488,base_imu_link,-0.02346707661191305,0.06370853477728551,0.28439461650438813,0.9563002776404198,0.0025,0.0,0.0,0.0,0.0025,0.0,0.0,0.0,0.0025,0.0,-0.01,0.0,0.02,0.0,0.0,0.0,0.02,0.0,0.0,0.0,0.02,-1.350240234375,-0.05745703125,9.71023828125,0.04,0.0,0.0,0.0,0.04,0.0,0.0,0.0,0.04
1614727017.3200192,13779,1614727017,319609642,base_imu_link,-0.023527761570387353,0.06387136368139752,0.2845588725950806,0.9562390607815506,0.0025,0.0,0.0,0.0,0.0025,0.0,0.0,0.0,0.0025,-0.0,-0.02,-0.0,0.02,0.0,0.0,0.0,0.02,0.0,0.0,0.0,0.02,-1.3215117187499998,-0.09576171874999999,9.59532421875,0.04,0.0,0.0,0.0,0.04,0.0,0.0,0.0,0.04
1614727017.340256,13780,1614727017,339820623,base_imu_link,-0.02381617542355821,0.06414723469594173,0.2848985207640003,0.9561123129295754,0.0025,0.0,0.0,0.0,0.0025,0.0,0.0,0.0,0.0025,-0.0,0.01,-0.01,0.02,0.0,0.0,0.0,0.02,0.0,0.0,0.0,0.02,-1.326491328125,-0.11989367187499998,9.63362890625,0.04,0.0,0.0,0.0,0.04,0.0,0.0,0.0,0.04
1614727017.3600972,13781,1614727017,359659194,base_imu_link,-0.024160097069472662,0.06440856017497291,0.2848266555744147,0.9561075270910037,0.0025,0.0,0.0,0.0,0.0025,0.0,0.0,0.0,0.0025,0.0,0.01,-0.01,0.02,0.0,0.0,0.0,0.02,0.0,0.0,0.0,0.02,-1.3360675,-0.067033203125,9.806,0.04,0.0,0.0,0.0,0.04,0.0,0.0,0.0,0.04
1614727017.3799045,13782,1614727017,379464864,base_imu_link,-0.024135239638459028,0.06450423956142846,0.28532029376211143,0.955954508987587,0.0025,0.0,0.0,0.0,0.0025,0.0,0.0,0.0,0.0025,0.01,-0.0,-0.0,0.02,0.0,0.0,0.0,0.02,0.0,0.0,0.0,0.02,-1.3169151562499999,-0.033708125,9.825152343749998,0.04,0.0,0.0,0.0,0.04,0.0,0.0,0.0,0.04
1614727017.4003224,13783,1614727017,399868488,base_imu_link,-0.0238770082120921,0.0644892464413388,0.2855549991491169,0.9558919227785199,0.0025,0.0,0.0,0.0,0.0025,0.0,0.0,0.0,0.0025,0.0,-0.0,0.01,0.02,0.0,0.0,0.0,0.02,0.0,0.0,0.0,0.02,-1.302359375,-0.009576171875,9.772291874999999,0.04,0.0,0.0,0.0,0.04,0.0,0.0,0.0,0.04
1614727017.4203668,13784,1614727017,419929265,base_imu_link,-0.023599492871381085,0.06438890312786122,0.28587448567670193,0.9558100813076233,0.0025,0.0,0.0,0.0,0.0025,0.0,0.0,0.0,0.0025,-0.01,-0.01,0.01,0.02,0.0,0.0,0.0,0.02,0.0,0.0,0.0,0.02,-1.307338984375,0.004979609375,9.767695312499999,0.04,0.0,0.0,0.0,0.04,0.0,0.0,0.0,0.04
1614727017.4405897,13785,1614727017,440150022,base_imu_link,-0.023308177178777985,0.06420127275278835,0.2863621905689871,0.9556838500602883,0.0025,0.0,0.0,0.0,0.0025,0.0,0.0,0.0,0.0025,-0.01,-0.02,0.02,0.02,0.0,0.0,0.0,0.02,0.0,0.0,0.0,0.02,-1.3310878906249999,-0.004979609375,9.758119140624999,0.04,0.0,0.0,0.0,0.04,0.0,0.0,0.0,0.04
1614727017.4605799,13786,1614727017,460176706,base_imu_link,-0.023130628703871156,0.06407030806611451,0.2869375137536109,0.955524375848661,0.0025,0.0,0.0,0.0,0.0025,0.0,0.0,0.0,0.0025,-0.02,-0.03,0.02,0.02,0.0,0.0,0.0,0.02,0.0,0.0,0.0,0.02,-1.3169151562499999,-0.023748906249999997,9.719814453124998,0.04,0.0,0.0,0.0,0.04,0.0,0.0,0.0,0.04
1614727017.4806802,13787,1614727017,480288743,base_imu_link,-0.02298339174637759,0.0638411415315904,0.28710288097041503,0.955493593955639,0.0025,0.0,0.0,0.0,0.0025,0.0,0.0,0.0,0.0025,-0.01,-0.03,0.02,0.02,0.0,0.0,0.0,0.02,0.0,0.0,0.0,0.02,-1.302359375,-0.11989367187499998,9.624052734374999,0.04,0.0,0.0,0.0,0.04,0.0,0.0,0.0,0.04
1614727017.500543,13788,1614727017,500026464,base_imu_link,-0.023250231690919387,0.06375989127483783,0.2873697209149569,0.9554123436988865,0.0025,0.0,0.0,0.0,0.0025,0.0,0.0,0.0,0.0025,0.0,-0.01,0.01,0.02,0.0,0.0,0.0,0.02,0.0,0.0,0.0,0.02,-1.3169151562499999,-0.20607921875,9.614476562499998,0.04,0.0,0.0,0.0,0.04,0.0,0.0,0.0,0.04
1614727017.5203874,13789,1614727017,519882678,base_imu_link,-0.023978409651871934,0.06372184833753836,0.2875782692171909,0.9553341305475586,0.0025,0.0,0.0,0.0,0.0025,0.0,0.0,0.0,0.0025,0.01,-0.01,-0.0,0.02,0.0,0.0,0.0,0.02,0.0,0.0,0.0,0.02,-1.3215117187499998,-0.24898046875,9.66733703125,0.04,0.0,0.0,0.0,0.04,0.0,0.0,0.0,0.04
1614727017.540721,13790,1614727017,540264606,base_imu_link,-0.024776018758846715,0.06375693602452434,0.28720759584701955,0.9554229424139873,0.0025,0.0,0.0,0.0,0.0025,0.0,0.0,0.0,0.0025,0.01,0.01,-0.01,0.02,0.0,0.0,0.0,0.02,0.0,0.0,0.0,0.02,-1.3406640625,-0.181947265625,9.681509765625,0.04,0.0,0.0,0.0,0.04,0.0,0.0,0.0,0.04
1614727017.5606816,13791,1614727017,560287952,base_imu_link,-0.025301123989402614,0.06405520913137924,0.2869791149264274,0.9554578854685604,0.0025,0.0,0.0,0.0,0.0025,0.0,0.0,0.0,0.0025,0.01,0.02,-0.01,0.02,0.0,0.0,0.0,0.02,0.0,0.0,0.0,0.02,-1.345643671875,-0.05286046874999999,9.74854296875,0.04,0.0,0.0,0.0,0.04,0.0,0.0,0.0,0.04
1614727017.5807784,13792,1614727017,580307245,base_imu_link,-0.02510128062922375,0.0644758382078428,0.2874519023251311,0.9552927278315441,0.0025,0.0,0.0,0.0,0.0025,0.0,0.0,0.0,0.0025,0.01,0.02,0.01,0.02,0.0,0.0,0.0,0.02,0.0,0.0,0.0,0.02,-1.3215117187499998,0.004979609375,9.815576171875,0.04,0.0,0.0,0.0,0.04,0.0,0.0,0.0,0.04
1614727017.6008444,13793,1614727017,600360393,base_imu_link,-0.024679404941255634,0.06478234235620017,0.2878322625215585,0.9551684478364588,0.0025,0.0,0.0,0.0,0.0025,0.0,0.0,0.0,0.0025,0.0,0.01,0.02,0.02,0.0,0.0,0.0,0.02,0.0,0.0,0.0,0.02,-1.3360675,0.05286046874999999,9.8780128125,0.04,0.0,0.0,0.0,0.04,0.0,0.0,0.0,0.04
1614727017.6206574,13794,1614727017,620196580,base_imu_link,-0.023932471127942032,0.06491457829831229,0.28819943690020566,0.9550677561934896,0.0025,0.0,0.0,0.0,0.0025,0.0,0.0,0.0,0.0025,0.01,-0.0,0.03,0.02,0.0,0.0,0.0,0.02,0.0,0.0,0.0,0.02,-1.350240234375,0.09576171874999999,9.90635828125,0.04,0.0,0.0,0.0,0.04,0.0,0.0,0.0,0.04
1614727017.6407554,13795,1614727017,640292406,base_imu_link,-0.022929939846077572,0.06512498560020762,0.28846615148656424,0.9549975044761944,0.0025,0.0,0.0,0.0,0.0025,0.0,0.0,0.0,0.0025,0.01,-0.01,0.04,0.02,0.0,0.0,0.0,0.02,0.0,0.0,0.0,0.02,-1.3169151562499999,0.067033203125,9.8872059375,0.04,0.0,0.0,0.0,0.04,0.0,0.0,0.0,0.04
1614727017.660727,13796,1614727017,660264968,base_imu_link,-0.022216188439805128,0.06506662000590399,0.28884189538006894,0.954904778187576,0.0025,0.0,0.0,0.0,0.0025,0.0,0.0,0.0,0.0025,0.01,-0.02,0.04,0.02,0.0,0.0,0.0,0.02,0.0,0.0,0.0,0.02,-1.28320703125,0.06243664062499999,9.8872059375,0.04,0.0,0.0,0.0,0.04,0.0,0.0,0.0,0.04
1614727017.681128,13797,1614727017,680661439,base_imu_link,-0.02147351739659187,0.06465404882100177,0.28906311499792037,0.9548828501807795,0.0025,0.0,0.0,0.0,0.0025,0.0,0.0,0.0,0.0025,0.01,-0.04,0.04,0.02,0.0,0.0,0.0,0.02,0.0,0.0,0.0,0.02,-1.249881953125,-0.028728515625,9.839708125,0.04,0.0,0.0,0.0,0.04,0.0,0.0,0.0,0.04
1614727017.7012634,13798,1614727017,700687170,base_imu_link,-0.021196805356513256,0.06391814558066938,0.28957152814096015,0.9547845286756146,0.0025,0.0,0.0,0.0,0.0025,0.0,0.0,0.0,0.0025,0.01,-0.04,0.02,0.02,0.0,0.0,0.0,0.02,0.0,0.0,0.0,0.02,-1.235326171875,-0.09576171874999999,9.76309875,0.04,0.0,0.0,0.0,0.04,0.0,0.0,0.0,0.04
1614727017.7211006,13799,1614727017,720675468,base_imu_link,-0.021166962271612435,0.0631991272985806,0.28967828713899807,0.9548006702852204,0.0025,0.0,0.0,0.0,0.0025,0.0,0.0,0.0,0.0025,0.02,-0.04,0.01,0.02,0.0,0.0,0.0,0.02,0.0,0.0,0.0,0.02,-1.230729609375,-0.11989367187499998,9.705641718749998,0.04,0.0,0.0,0.0,0.04,0.0,0.0,0.0,0.04
1614727017.7411976,13800,1614727017,740735054,base_imu_link,-0.021210649427297182,0.06282265655507317,0.28936203363145563,0.9549204342074287,0.0025,0.0,0.0,0.0,0.0025,0.0,0.0,0.0,0.0025,0.03,-0.02,0.01,0.02,0.0,0.0,0.0,0.02,0.0,0.0,0.0,0.02,-1.2161738281249999,-0.21067578124999997,9.638225468749999,0.04,0.0,0.0,0.0,0.04,0.0,0.0,0.0,0.04
1614727017.7611768,13801,1614727017,760760784,base_imu_link,-0.021897220943647145,0.0625254197659683,0.2888293457948644,0.955085699089744,0.0025,0.0,0.0,0.0,0.0025,0.0,0.0,0.0,0.0025,0.02,0.01,-0.0,0.02,0.0,0.0,0.0,0.02,0.0,0.0,0.0,0.02,-1.2736308593749999,-0.1578153125,9.820555781249999,0.04,0.0,0.0,0.0,0.04,0.0,0.0,0.0,0.04
1614727017.7812598,13802,1614727017,780793190,base_imu_link,-0.022210876220576783,0.06233930016444344,0.28893589997749425,0.9550583931554746,0.0025,0.0,0.0,0.0,0.0025,0.0,0.0,0.0,0.0025,0.02,-0.01,0.0,0.02,0.0,0.0,0.0,0.02,0.0,0.0,0.0,0.02,-1.292783203125,-0.10533789062499999,9.839708125,0.04,0.0,0.0,0.0,0.04,0.0,0.0,0.0,0.04
1614727017.801469,13803,1614727017,800999879,base_imu_link,-0.022256151037507624,0.06232769265034167,0.2883578743470587,0.955232777270507,0.0025,0.0,0.0,0.0,0.0025,0.0,0.0,0.0,0.0025,0.02,-0.01,0.01,0.02,0.0,0.0,0.0,0.02,0.0,0.0,0.0,0.02,-1.307338984375,-0.076609375,9.777271484375,0.04,0.0,0.0,0.0,0.04,0.0,0.0,0.0,0.04
1614727017.8215353,13804,1614727017,821025848,base_imu_link,-0.02217823239621162,0.06235092120616975,0.28843579298835464,0.955209548714679,0.0025,0.0,0.0,0.0,0.0025,0.0,0.0,0.0,0.0025,0.02,-0.02,0.01,0.02,0.0,0.0,0.0,0.02,0.0,0.0,0.0,0.02,-1.3310878906249999,-0.090782109375,9.743946406249998,0.04,0.0,0.0,0.0,0.04,0.0,0.0,0.0,0.04
1614727017.8415124,13805,1614727017,841038942,base_imu_link,-0.022170673861477575,0.062445906584306224,0.2879342116823895,0.9553548344537924,0.0025,0.0,0.0,0.0,0.0025,0.0,0.0,0.0,0.0025,0.02,-0.03,0.01,0.02,0.0,0.0,0.0,0.02,0.0,0.0,0.0,0.02,-1.3406640625,-0.162794921875,9.62903234375,0.04,0.0,0.0,0.0,0.04,0.0,0.0,0.0,0.04
1614727017.8613746,13806,1614727017,860906124,base_imu_link,-0.02265242773061928,0.06239434728727371,0.28729849354515496,0.9555382716308064,0.0025,0.0,0.0,0.0,0.0025,0.0,0.0,0.0,0.0025,0.01,-0.03,-0.0,0.02,0.0,0.0,0.0,0.02,0.0,0.0,0.0,0.02,-1.3310878906249999,-0.201099609375,9.5041590625,0.04,0.0,0.0,0.0,0.04,0.0,0.0,0.0,0.04
1614727017.8814368,13807,1614727017,880961179,base_imu_link,-0.023406390462341307,0.06262506308724863,0.2867517604989474,0.9556692263589933,0.0025,0.0,0.0,0.0,0.0025,0.0,0.0,0.0,0.0025,0.0,-0.01,-0.01,0.02,0.0,0.0,0.0,0.02,0.0,0.0,0.0,0.02,-1.3169151562499999,-0.23480773437499997,9.4995625,0.04,0.0,0.0,0.0,0.04,0.0,0.0,0.0,0.04
1614727017.901663,13808,1614727017,901248216,base_imu_link,-0.024384685062695453,0.06287740390536141,0.2867155041750291,0.9556390735409337,0.0025,0.0,0.0,0.0,0.0025,0.0,0.0,0.0,0.0025,0.0,0.01,-0.02,0.02,0.0,0.0,0.0,0.02,0.0,0.0,0.0,0.02,-1.3598164062499998,-0.16739148437499998,9.67653015625,0.04,0.0,0.0,0.0,0.04,0.0,0.0,0.0,0.04
1614727017.921748,13809,1614727017,921355962,base_imu_link,-0.024840401446968727,0.06328863513863033,0.2863131458897694,0.9557208199097403,0.0025,0.0,0.0,0.0,0.0025,0.0,0.0,0.0,0.0025,0.01,0.01,-0.01,0.02,0.0,0.0,0.0,0.02,0.0,0.0,0.0,0.02,-1.388544921875,-0.09576171874999999,9.853880859375,0.04,0.0,0.0,0.0,0.04,0.0,0.0,0.0,0.04
1614727017.9418356,13810,1614727017,941417455,base_imu_link,-0.02480084107443093,0.06384778586913493,0.2859610240577863,0.9557900769737211,0.0025,0.0,0.0,0.0,0.0025,0.0,0.0,0.0,0.0025,0.02,0.01,-0.01,0.02,0.0,0.0,0.0,0.02,0.0,0.0,0.0,0.02,-1.4172734374999998,-0.01915234375,9.90635828125,0.04,0.0,0.0,0.0,0.04,0.0,0.0,0.0,0.04
1614727017.961865,13811,1614727017,961440086,base_imu_link,-0.024366278985576105,0.06434397505814458,0.2854218897372886,0.9559291198519423,0.0025,0.0,0.0,0.0,0.0025,0.0,0.0,0.0,0.0025,0.02,-0.01,0.0,0.02,0.0,0.0,0.0,0.02,0.0,0.0,0.0,0.02,-1.4268496093749998,-0.004979609375,9.82974890625,0.04,0.0,0.0,0.0,0.04,0.0,0.0,0.0,0.04
1614727017.9816453,13812,1614727017,981256246,base_imu_link,-0.023962911093339034,0.06473536054430586,0.28571779332761593,0.9558244894137883,0.0025,0.0,0.0,0.0,0.0025,0.0,0.0,0.0,0.0025,0.01,-0.03,0.02,0.02,0.0,0.0,0.0,0.02,0.0,0.0,0.0,0.02,-1.407697265625,0.0,9.743946406249998,0.04,0.0,0.0,0.0,0.04,0.0,0.0,0.0,0.04
1614727018.0020475,13813,1614727018,1703739,base_imu_link,-0.023866252182335977,0.06485200698627865,0.28637234675918855,0.9556230942208628,0.0025,0.0,0.0,0.0,0.0025,0.0,0.0,0.0,0.0025,-0.01,-0.03,0.02,0.02,0.0,0.0,0.0,0.02,0.0,0.0,0.0,0.02,-1.364796015625,-0.0720128125,9.6573778125,0.04,0.0,0.0,0.0,0.04,0.0,0.0,0.0,0.04
1614727018.0223188,13814,1614727018,21789550,base_imu_link,-0.024155998438052946,0.06476228868403454,0.28697301478288156,0.9554416897384637,0.0025,0.0,0.0,0.0,0.0025,0.0,0.0,0.0,0.0025,-0.03,-0.03,0.01,0.02,0.0,0.0,0.0,0.02,0.0,0.0,0.0,0.02,-1.3310878906249999,-0.1149140625,9.700662109375,0.04,0.0,0.0,0.0,0.04,0.0,0.0,0.0,0.04
1614727018.0420828,13815,1614727018,41643381,base_imu_link,-0.024539786812907045,0.06446385505680233,0.2872539951394477,0.9553676530691307,0.0025,0.0,0.0,0.0,0.0025,0.0,0.0,0.0,0.0025,-0.02,-0.03,0.0,0.02,0.0,0.0,0.0,0.02,0.0,0.0,0.0,0.02,-1.302359375,-0.1149140625,9.75313953125,0.04,0.0,0.0,0.0,0.04,0.0,0.0,0.0,0.04
1614727018.0621235,13816,1614727018,61678409,base_imu_link,-0.024784411455684063,0.06402569518848542,0.28744833514646584,0.9553323494606218,0.0025,0.0,0.0,0.0,0.0025,0.0,0.0,0.0,0.0025,-0.02,-0.03,-0.0,0.02,0.0,0.0,0.0,0.02,0.0,0.0,0.0,0.02,-1.28320703125,-0.10533789062499999,9.772291874999999,0.04,0.0,0.0,0.0,0.04,0.0,0.0,0.0,0.04
1614727018.0821211,13817,1614727018,81707715,base_imu_link,-0.02486504203195359,0.06355087214588848,0.2868042928200607,0.9555555001956878,0.0025,0.0,0.0,0.0,0.0025,0.0,0.0,0.0,0.0025,-0.01,-0.03,-0.01,0.02,0.0,0.0,0.0,0.02,0.0,0.0,0.0,0.02,-1.259458125,-0.090782109375,9.772291874999999,0.04,0.0,0.0,0.0,0.04,0.0,0.0,0.0,0.04
1614727018.1020474,13818,1614727018,101716518,base_imu_link,-0.02482911280338279,0.06310663550909389,0.28689935467293903,0.9555573389390979,0.0025,0.0,0.0,0.0,0.0025,0.0,0.0,0.0,0.0025,-0.01,-0.02,-0.0,0.02,0.0,0.0,0.0,0.02,0.0,0.0,0.0,0.02,-1.2544785156249998,-0.047880859374999994,9.767695312499999,0.04,0.0,0.0,0.0,0.04,0.0,0.0,0.0,0.04
1614727018.1223528,13819,1614727018,121967792,base_imu_link,-0.024556957801502473,0.06282521889267802,0.2868098677621995,0.9556097778114515,0.0025,0.0,0.0,0.0,0.0025,0.0,0.0,0.0,0.0025,-0.0,-0.01,0.0,0.02,0.0,0.0,0.0,0.02,0.0,0.0,0.0,0.02,-1.2544785156249998,-0.05286046874999999,9.71023828125,0.04,0.0,0.0,0.0,0.04,0.0,0.0,0.0,0.04
1614727018.1421714,13820,1614727018,141754627,base_imu_link,-0.024270846236130926,0.06282112928281014,0.2866278651553699,0.9556719618441726,0.0025,0.0,0.0,0.0,0.0025,0.0,0.0,0.0,0.0025,0.01,-0.0,0.0,0.02,0.0,0.0,0.0,0.02,0.0,0.0,0.0,0.02,-1.2544785156249998,-0.10533789062499999,9.777271484375,0.04,0.0,0.0,0.0,0.04,0.0,0.0,0.0,0.04
1614727018.1622434,13821,1614727018,161818742,base_imu_link,-0.02419052231311246,0.06257299123747055,0.28654818839228435,0.955714170203055,0.0025,0.0,0.0,0.0,0.0025,0.0,0.0,0.0,0.0025,0.01,-0.01,-0.0,0.02,0.0,0.0,0.0,0.02,0.0,0.0,0.0,0.02,-1.302359375,-0.0720128125,9.767695312499999,0.04,0.0,0.0,0.0,0.04,0.0,0.0,0.0,0.04
1614727018.1822536,13822,1614727018,181871652,base_imu_link,-0.02411258304018557,0.06259589306446799,0.2866261276652111,0.9556912683760578,0.0025,0.0,0.0,0.0,0.0025,0.0,0.0,0.0,0.0025,0.0,-0.01,-0.01,0.02,0.0,0.0,0.0,0.02,0.0,0.0,0.0,0.02,-1.3119355468749998,-0.11031749999999999,9.733987187499999,0.04,0.0,0.0,0.0,0.04,0.0,0.0,0.0,0.04
1614727018.2025793,13823,1614727018,202136039,base_imu_link,-0.024365203873956708,0.06279186446985331,0.2868001377279022,0.9556197986625417,0.0025,0.0,0.0,0.0,0.0025,0.0,0.0,0.0,0.0025,0.0,0.0,-0.01,0.02,0.0,0.0,0.0,0.02,0.0,0.0,0.0,0.02,-1.388544921875,-0.04290125,9.75313953125,0.04,0.0,0.0,0.0,0.04,0.0,0.0,0.0,0.04
1614727018.2224793,13824,1614727018,222037315,base_imu_link,-0.024181446546208022,0.06339243032882887,0.28677055788607897,0.9555936921880787,0.0025,0.0,0.0,0.0,0.0025,0.0,0.0,0.0,0.0025,0.01,0.01,-0.0,0.02,0.0,0.0,0.0,0.02,0.0,0.0,0.0,0.02,-1.407697265625,-0.028728515625,9.820555781249999,0.04,0.0,0.0,0.0,0.04,0.0,0.0,0.0,0.04
1614727018.2423375,13825,1614727018,241895675,base_imu_link,-0.02391431478640121,0.06401798830709997,0.2867349295715848,0.9555694024428508,0.0025,0.0,0.0,0.0,0.0025,0.0,0.0,0.0,0.0025,0.01,-0.0,0.01,0.02,0.0,0.0,0.0,0.02,0.0,0.0,0.0,0.02,-1.4268496093749998,0.047880859374999994,9.897165156249999,0.04,0.0,0.0,0.0,0.04,0.0,0.0,0.0,0.04
1614727018.2623622,13826,1614727018,261953353,base_imu_link,-0.023350246320218395,0.06445817805492494,0.2871029102140513,0.9554432626928966,0.0025,0.0,0.0,0.0,0.0025,0.0,0.0,0.0,0.0025,0.01,-0.03,0.03,0.02,0.0,0.0,0.0,0.02,0.0,0.0,0.0,0.02,-1.4509815625,0.11031749999999999,9.8872059375,0.04,0.0,0.0,0.0,0.04,0.0,0.0,0.0,0.04
1614727018.2825248,13827,1614727018,282116413,base_imu_link,-0.02253973568000213,0.06488088134143385,0.28787162457154264,0.9552027843962638,0.0025,0.0,0.0,0.0,0.0025,0.0,0.0,0.0,0.0025,0.01,-0.05,0.04,0.02,0.0,0.0,0.0,0.02,0.0,0.0,0.0,0.02,-1.43182921875,0.17696765625,9.8443046875,0.04,0.0,0.0,0.0,0.04,0.0,0.0,0.0,0.04
1614727018.3025413,13828,1614727018,302121162,base_imu_link,-0.021195687071649854,0.06546720987617426,0.2881052481096916,0.9551231089719496,0.0025,0.0,0.0,0.0,0.0025,0.0,0.0,0.0,0.0025,0.02,-0.04,0.06,0.02,0.0,0.0,0.0,0.02,0.0,0.0,0.0,0.02,-1.3743721875,0.19650304687499998,9.892185546875,0.04,0.0,0.0,0.0,0.04,0.0,0.0,0.0,0.04
1614727018.3224182,13829,1614727018,321980237,base_imu_link,-0.019775879035795783,0.0658955719792031,0.2891687840815324,0.9548026510827793,0.0025,0.0,0.0,0.0,0.0025,0.0,0.0,0.0,0.0025,0.05,-0.02,0.08,0.02,0.0,0.0,0.0,0.02,0.0,0.0,0.0,0.02,-1.3406640625,0.26353624999999997,10.16989453125,0.04,0.0,0.0,0.0,0.04,0.0,0.0,0.0,0.04
1614727018.342396,13830,1614727018,341974973,base_imu_link,-0.017706741681814277,0.06570591043414035,0.29013625409927973,0.9545628102384214,0.0025,0.0,0.0,0.0,0.0025,0.0,0.0,0.0,0.0025,0.07,-0.06,0.1,0.02,0.0,0.0,0.0,0.02,0.0,0.0,0.0,0.02,-1.307338984375,0.27311242187499996,10.313537109375,0.04,0.0,0.0,0.0,0.04,0.0,0.0,0.0,0.04
1614727018.362344,13831,1614727018,362028837,base_imu_link,-0.015688810260498433,0.0647770663505989,0.2912218854693374,0.9543309731593668,0.0025,0.0,0.0,0.0,0.0025,0.0,0.0,0.0,0.0025,0.07,-0.12,0.11,0.02,0.0,0.0,0.0,0.02,0.0,0.0,0.0,0.02,-1.24030578125,0.1578153125,10.064556640625,0.04,0.0,0.0,0.0,0.04,0.0,0.0,0.0,0.04
1614727018.3826647,13832,1614727018,382261991,base_imu_link,-0.014080013762112766,0.06345269979457882,0.29218392665885556,0.9541509634766661,0.0025,0.0,0.0,0.0,0.0025,0.0,0.0,0.0,0.0025,0.07,-0.14,0.11,0.02,0.0,0.0,0.0,0.02,0.0,0.0,0.0,0.02,-1.1012597656249998,-0.05745703125,9.67653015625,0.04,0.0,0.0,0.0,0.04,0.0,0.0,0.0,0.04
1614727018.4026382,13833,1614727018,402217626,base_imu_link,-0.013834900449758937,0.061707511398234965,0.292491181048755,0.9541748726388084,0.0025,0.0,0.0,0.0,0.0025,0.0,0.0,0.0,0.0025,0.06,-0.11,0.09,0.02,0.0,0.0,0.0,0.02,0.0,0.0,0.0,0.02,-1.1445440624999998,-0.21067578124999997,9.4183565625,0.04,0.0,0.0,0.0,0.04,0.0,0.0,0.0,0.04
1614727018.4228246,13834,1614727018,422459602,base_imu_link,-0.01474045445207478,0.06042915515740407,0.29292039666675945,0.9541114596450967,0.0025,0.0,0.0,0.0,0.0025,0.0,0.0,0.0,0.0025,0.03,-0.09,0.05,0.02,0.0,0.0,0.0,0.02,0.0,0.0,0.0,0.02,-1.2211534375,-0.26353624999999997,9.322594843749998,0.04,0.0,0.0,0.0,0.04,0.0,0.0,0.0,0.04
1614727018.4430552,13835,1614727018,442684650,base_imu_link,-0.016094263059280103,0.05983083566401813,0.29284673846247156,0.9541499009968071,0.0025,0.0,0.0,0.0,0.0025,0.0,0.0,0.0,0.0025,0.01,-0.07,0.02,0.02,0.0,0.0,0.0,0.02,0.0,0.0,0.0,0.02,-1.230729609375,-0.388026484375,9.394224609375,0.04,0.0,0.0,0.0,0.04,0.0,0.0,0.0,0.04
1614727018.4631932,13836,1614727018,462749481,base_imu_link,-0.01828588795310361,0.05906698639075267,0.2924888556989779,0.9542677751618692,0.0025,0.0,0.0,0.0,0.0025,0.0,0.0,0.0,0.0025,-0.01,-0.05,-0.01,0.02,0.0,0.0,0.0,0.02,0.0,0.0,0.0,0.02,-1.364796015625,-0.27770898437499997,9.432529296875,0.04,0.0,0.0,0.0,0.04,0.0,0.0,0.0,0.04
1614727018.4832628,13837,1614727018,482806921,base_imu_link,-0.020196133576927417,0.059392698048430524,0.2924106361722271,0.954233013189349,0.0025,0.0,0.0,0.0,0.0025,0.0,0.0,0.0,0.0025,-0.02,-0.03,-0.01,0.02,0.0,0.0,0.0,0.02,0.0,0.0,0.0,0.02,-1.3406640625,-0.292264765625,9.48500671875,0.04,0.0,0.0,0.0,0.04,0.0,0.0,0.0,0.04
1614727018.503451,13838,1614727018,503003120,base_imu_link,-0.02183072312289025,0.05971215244112829,0.2923199270042895,0.9542048724749763,0.0025,0.0,0.0,0.0,0.0025,0.0,0.0,0.0,0.0025,-0.01,-0.01,0.01,0.02,0.0,0.0,0.0,0.02,0.0,0.0,0.0,0.02,-1.345643671875,-0.26353624999999997,9.619073125,0.04,0.0,0.0,0.0,0.04,0.0,0.0,0.0,0.04
1614727018.5234818,13839,1614727018,523004531,base_imu_link,-0.023017136382410243,0.060258295129074664,0.2926141978705816,0.9540524516531819,0.0025,0.0,0.0,0.0,0.0025,0.0,0.0,0.0,0.0025,0.01,0.01,0.02,0.02,0.0,0.0,0.0,0.02,0.0,0.0,0.0,0.02,-1.3169151562499999,-0.28268859375,9.652781249999999,0.04,0.0,0.0,0.0,0.04,0.0,0.0,0.0,0.04
1614727018.5434997,13840,1614727018,543061256,base_imu_link,-0.024106043697818807,0.06056237692790288,0.29258018521368984,0.954016735900584,0.0025,0.0,0.0,0.0,0.0025,0.0,0.0,0.0,0.0025,0.01,0.01,0.02,0.02,0.0,0.0,0.0,0.02,0.0,0.0,0.0,0.02,-1.259458125,-0.330569453125,9.4995625,0.04,0.0,0.0,0.0,0.04,0.0,0.0,0.0,0.04
1614727018.5618925,13841,1614727018,561452388,base_imu_link,-0.025507628766979856,0.06067896750576176,0.29265252127889557,0.9539506934670294,0.0025,0.0,0.0,0.0,0.0025,0.0,0.0,0.0,0.0025,-0.0,0.03,0.01,0.02,0.0,0.0,0.0,0.02,0.0,0.0,0.0,0.02,-1.1874453125,-0.27770898437499997,9.4612578125,0.04,0.0,0.0,0.0,0.04,0.0,0.0,0.0,0.04
1614727018.5819304,13842,1614727018,581488609,base_imu_link,-0.02654638311422352,0.0607218314866909,0.2930394068951967,0.9538008464721375,0.0025,0.0,0.0,0.0,0.0025,0.0,0.0,0.0,0.0025,-0.01,0.05,0.01,0.02,0.0,0.0,0.0,0.02,0.0,0.0,0.0,0.02,-1.1491406249999998,-0.17237109374999998,9.681509765625,0.04,0.0,0.0,0.0,0.04,0.0,0.0,0.0,0.04
1614727018.6018555,13843,1614727018,601491928,base_imu_link,-0.026963468188177048,0.06049894278786202,0.29348303258280134,0.9536669014340481,0.0025,0.0,0.0,0.0,0.0025,0.0,0.0,0.0,0.0025,-0.02,0.04,0.01,0.02,0.0,0.0,0.0,0.02,0.0,0.0,0.0,0.02,-1.12998828125,-0.12946984374999998,9.8443046875,0.04,0.0,0.0,0.0,0.04,0.0,0.0,0.0,0.04
1614727018.6221237,13844,1614727018,621559143,base_imu_link,-0.026893551574146426,0.059973821398895594,0.293494325838769,0.9536985678562114,0.0025,0.0,0.0,0.0,0.0025,0.0,0.0,0.0,0.0025,-0.02,0.02,0.01,0.02,0.0,0.0,0.0,0.02,0.0,0.0,0.0,0.02,-1.16369640625,-0.076609375,9.911337890625,0.04,0.0,0.0,0.0,0.04,0.0,0.0,0.0,0.04
1614727018.6420598,13845,1614727018,641619443,base_imu_link,-0.026656700509154044,0.059594799825244925,0.2930779075213036,0.9538570229728816,0.0025,0.0,0.0,0.0,0.0025,0.0,0.0,0.0,0.0025,-0.02,0.01,0.01,0.02,0.0,0.0,0.0,0.02,0.0,0.0,0.0,0.02,-1.1874453125,-0.014555781249999998,9.8780128125,0.04,0.0,0.0,0.0,0.04,0.0,0.0,0.0,0.04
1614727018.6638672,13846,1614727018,663432121,base_imu_link,-0.026252853599529592,0.059350294233238954,0.29356055792510505,0.9537350413416771,0.0025,0.0,0.0,0.0,0.0025,0.0,0.0,0.0,0.0025,-0.03,0.0,0.01,0.02,0.0,0.0,0.0,0.02,0.0,0.0,0.0,0.02,-1.1874453125,0.0,9.834728515624999,0.04,0.0,0.0,0.0,0.04,0.0,0.0,0.0,0.04
1614727018.6822119,13847,1614727018,681667327,base_imu_link,-0.025858512745202157,0.059290767553194505,0.29337543529960286,0.9538064773130492,0.0025,0.0,0.0,0.0,0.0025,0.0,0.0,0.0,0.0025,-0.03,0.01,0.01,0.02,0.0,0.0,0.0,0.02,0.0,0.0,0.0,0.02,-1.173272578125,-0.028728515625,9.839708125,0.04,0.0,0.0,0.0,0.04,0.0,0.0,0.0,0.04
1614727018.7039042,13848,1614727018,703483581,base_imu_link,-0.025443832201147605,0.05914561260812749,0.2932746677817719,0.9538576293921542,0.0025,0.0,0.0,0.0,0.0025,0.0,0.0,0.0,0.0025,-0.02,0.01,-0.0,0.02,0.0,0.0,0.0,0.02,0.0,0.0,0.0,0.02,-1.2161738281249999,0.028728515625,9.901761718749999,0.04,0.0,0.0,0.0,0.04,0.0,0.0,0.0,0.04
1614727018.7239485,13849,1614727018,723454475,base_imu_link,-0.02479344483964181,0.05934385364576418,0.29348301876989424,0.9537983590996388,0.0025,0.0,0.0,0.0,0.0025,0.0,0.0,0.0,0.0025,-0.0,0.01,-0.0,0.02,0.0,0.0,0.0,0.02,0.0,0.0,0.0,0.02,-1.259458125,0.1149140625,9.944662968749999,0.04,0.0,0.0,0.0,0.04,0.0,0.0,0.0,0.04
1614727018.7439513,13850,1614727018,743509531,base_imu_link,-0.023690209380938312,0.05977115961375249,0.29399167940316606,0.9536430542396985,0.0025,0.0,0.0,0.0,0.0025,0.0,0.0,0.0,0.0025,0.01,0.0,0.01,0.02,0.0,0.0,0.0,0.02,0.0,0.0,0.0,0.02,-1.302359375,0.11031749999999999,9.968794921874998,0.04,0.0,0.0,0.0,0.04,0.0,0.0,0.0,0.04
1614727018.7638276,13851,1614727018,763393640,base_imu_link,-0.02259318822872793,0.06001746521375259,0.29409144331119264,0.9536234449121501,0.0025,0.0,0.0,0.0,0.0025,0.0,0.0,0.0,0.0025,0.02,-0.03,0.02,0.02,0.0,0.0,0.0,0.02,0.0,0.0,0.0,0.02,-1.302359375,0.05745703125,9.949642578125,0.04,0.0,0.0,0.0,0.04,0.0,0.0,0.0,0.04
1614727018.7840612,13852,1614727018,783623456,base_imu_link,-0.021699240603485947,0.06011141059561761,0.2938752845131231,0.9537049220937093,0.0025,0.0,0.0,0.0,0.0025,0.0,0.0,0.0,0.0025,0.02,-0.05,0.01,0.02,0.0,0.0,0.0,0.02,0.0,0.0,0.0,0.02,-1.2544785156249998,-0.067033203125,9.82974890625,0.04,0.0,0.0,0.0,0.04,0.0,0.0,0.0,0.04
1614727018.804054,13853,1614727018,803631305,base_imu_link,-0.021482733274898635,0.059722743320006245,0.29379374185269086,0.9537593634400485,0.0025,0.0,0.0,0.0,0.0025,0.0,0.0,0.0,0.0025,0.02,-0.05,0.01,0.02,0.0,0.0,0.0,0.02,0.0,0.0,0.0,0.02,-1.22575,-0.17696765625,9.681509765625,0.04,0.0,0.0,0.0,0.04,0.0,0.0,0.0,0.04
1614727018.8241334,13854,1614727018,823677778,base_imu_link,-0.02195682601502454,0.05939284621840182,0.29424377003163665,0.9536304270559914,0.0025,0.0,0.0,0.0,0.0025,0.0,0.0,0.0,0.0025,0.02,-0.03,0.01,0.02,0.0,0.0,0.0,0.02,0.0,0.0,0.0,0.02,-1.2211534375,-0.23940429687499998,9.518714843749999,0.04,0.0,0.0,0.0,0.04,0.0,0.0,0.0,0.04
1614727018.843742,13855,1614727018,843290567,base_imu_link,-0.022678741780500222,0.05944502546587058,0.29394843472316146,0.9537013585721783,0.0025,0.0,0.0,0.0,0.0025,0.0,0.0,0.0,0.0025,0.02,-0.0,0.01,0.02,0.0,0.0,0.0,0.02,0.0,0.0,0.0,0.02,-1.22575,-0.22523156249999998,9.5041590625,0.04,0.0,0.0,0.0,0.04,0.0,0.0,0.0,0.04
1614727018.8643396,13856,1614727018,863871335,base_imu_link,-0.023462149349920927,0.05966008983821933,0.29381726791300733,0.9537093971983887,0.0025,0.0,0.0,0.0,0.0025,0.0,0.0,0.0,0.0025,0.01,0.02,0.01,0.02,0.0,0.0,0.0,0.02,0.0,0.0,0.0,0.02,-1.2640546874999998,-0.201099609375,9.571575312499998,0.04,0.0,0.0,0.0,0.04,0.0,0.0,0.0,0.04
1614727018.884449,13857,1614727018,883999824,base_imu_link,-0.024130725058880195,0.05999937686953398,0.2940909418424197,0.9535870703871979,0.0025,0.0,0.0,0.0,0.0025,0.0,0.0,0.0,0.0025,0.01,0.02,0.02,0.02,0.0,0.0,0.0,0.02,0.0,0.0,0.0,0.02,-1.3169151562499999,-0.139046015625,9.585748046874999,0.04,0.0,0.0,0.0,0.04,0.0,0.0,0.0,0.04
1614727018.9024048,13858,1614727018,902021408,base_imu_link,-0.02474634433279002,0.06053907171615679,0.2940244582022241,0.9535576842628859,0.0025,0.0,0.0,0.0,0.0025,0.0,0.0,0.0,0.0025,-0.02,0.02,0.02,0.02,0.0,0.0,0.0,0.02,0.0,0.0,0.0,0.02,-1.3406640625,-0.067033203125,9.638225468749999,0.04,0.0,0.0,0.0,0.04,0.0,0.0,0.0,0.04
1614727018.92261,13859,1614727018,922204971,base_imu_link,-0.025091973796968505,0.061249363989284086,0.2945182515788996,0.9533508838558804,0.0025,0.0,0.0,0.0,0.0025,0.0,0.0,0.0,0.0025,-0.02,0.02,0.03,0.02,0.0,0.0,0.0,0.02,0.0,0.0,0.0,0.02,-1.350240234375,-0.0720128125,9.71023828125,0.04,0.0,0.0,0.0,0.04,0.0,0.0,0.0,0.04
1614727018.9428418,13860,1614727018,942429780,base_imu_link,-0.025353242987045953,0.061900441881728135,0.29409797938814186,0.9534316582140006,0.0025,0.0,0.0,0.0,0.0025,0.0,0.0,0.0,0.0025,-0.02,0.02,0.02,0.02,0.0,0.0,0.0,0.02,0.0,0.0,0.0,0.02,-1.326491328125,-0.124490234375,9.777271484375,0.04,0.0,0.0,0.0,0.04,0.0,0.0,0.0,0.04
1614727018.962956,13861,1614727018,962509632,base_imu_link,-0.025729229421965153,0.0623340102167582,0.29369097995901644,0.9535187917468442,0.0025,0.0,0.0,0.0,0.0025,0.0,0.0,0.0,0.0025,-0.01,0.03,0.01,0.02,0.0,0.0,0.0,0.02,0.0,0.0,0.0,0.02,-1.307338984375,-0.162794921875,9.853880859375,0.04,0.0,0.0,0.0,0.04,0.0,0.0,0.0,0.04
1614727018.9846873,13862,1614727018,984271287,base_imu_link,-0.025997285269048542,0.06243720405400358,0.2932056370916093,0.9536541255016212,0.0025,0.0,0.0,0.0,0.0025,0.0,0.0,0.0,0.0025,-0.0,0.02,-0.0,0.02,0.0,0.0,0.0,0.02,0.0,0.0,0.0,0.02,-1.288186640625,-0.0720128125,9.911337890625,0.04,0.0,0.0,0.0,0.04,0.0,0.0,0.0,0.04
1614727019.0048232,13863,1614727019,4317283,base_imu_link,-0.025830840829779964,0.06248837714029735,0.29319473527802253,0.9536586483588605,0.0025,0.0,0.0,0.0,0.0025,0.0,0.0,0.0,0.0025,0.0,0.0,-0.0,0.02,0.0,0.0,0.0,0.02,0.0,0.0,0.0,0.02,-1.235326171875,-0.067033203125,9.806,0.04,0.0,0.0,0.0,0.04,0.0,0.0,0.0,0.04
1614727019.0231442,13864,1614727019,22690057,base_imu_link,-0.02570367032978925,0.06225077812294923,0.2936921783394379,0.9535245494149066,0.0025,0.0,0.0,0.0,0.0025,0.0,0.0,0.0,0.0025,-0.01,0.01,0.01,0.02,0.0,0.0,0.0,0.02,0.0,0.0,0.0,0.02,-1.2211534375,-0.023748906249999997,9.782251093749998,0.04,0.0,0.0,0.0,0.04,0.0,0.0,0.0,0.04
1614727019.0450168,13865,1614727019,44539451,base_imu_link,-0.025418781835791802,0.061975760603101615,0.29343648893797536,0.9536288154137358,0.0025,0.0,0.0,0.0,0.0025,0.0,0.0,0.0,0.0025,-0.03,0.0,0.01,0.02,0.0,0.0,0.0,0.02,0.0,0.0,0.0,0.02,-1.2211534375,0.0,9.853880859375,0.04,0.0,0.0,0.0,0.04,0.0,0.0,0.0,0.04
1614727019.064984,13866,1614727019,64563751,base_imu_link,-0.02513667764622959,0.06151217891400624,0.2940154301574557,0.9534879790073323,0.0025,0.0,0.0,0.0,0.0025,0.0,0.0,0.0,0.0025,-0.04,-0.02,0.03,0.02,0.0,0.0,0.0,0.02,0.0,0.0,0.0,0.02,-1.230729609375,-0.004979609375,9.911337890625,0.04,0.0,0.0,0.0,0.04,0.0,0.0,0.0,0.04
1614727019.0851176,13867,1614727019,84599971,base_imu_link,-0.024984110922044115,0.060918678022707784,0.2944398436760273,0.9533991227840716,0.0025,0.0,0.0,0.0,0.0025,0.0,0.0,0.0,0.0025,-0.05,-0.04,0.04,0.02,0.0,0.0,0.0,0.02,0.0,0.0,0.0,0.02,-1.235326171875,-0.1149140625,9.796423828124999,0.04,0.0,0.0,0.0,0.04,0.0,0.0,0.0,0.04
1614727019.105095,13868,1614727019,104637861,base_imu_link,-0.025074669868301758,0.06034445129009447,0.29437956398068577,0.9534518763105111,0.0025,0.0,0.0,0.0,0.0025,0.0,0.0,0.0,0.0025,-0.03,-0.04,0.03,0.02,0.0,0.0,0.0,0.02,0.0,0.0,0.0,0.02,-1.249881953125,-0.21067578124999997,9.733987187499999,0.04,0.0,0.0,0.0,0.04,0.0,0.0,0.0,0.04
1614727019.125098,13869,1614727019,124644041,base_imu_link,-0.025575009759076707,0.05991716643866931,0.294336474111828,0.9534788367075596,0.0025,0.0,0.0,0.0,0.0025,0.0,0.0,0.0,0.0025,-0.0,-0.03,0.01,0.02,0.0,0.0,0.0,0.02,0.0,0.0,0.0,0.02,-1.269034296875,-0.21565539062499997,9.67193359375,0.04,0.0,0.0,0.0,0.04,0.0,0.0,0.0,0.04
1614727019.1452763,13870,1614727019,144752979,base_imu_link,-0.0259538206709581,0.05998314374529331,0.294272020895722,0.9534843466869075,0.0025,0.0,0.0,0.0,0.0025,0.0,0.0,0.0,0.0025,0.01,-0.01,0.01,0.02,0.0,0.0,0.0,0.02,0.0,0.0,0.0,0.02,-1.28320703125,-0.13406640625,9.681509765625,0.04,0.0,0.0,0.0,0.04,0.0,0.0,0.0,0.04
1614727019.165132,13871,1614727019,164699077,base_imu_link,-0.0259106068824604,0.06027435368233354,0.2936810353638267,0.9536493549553683,0.0025,0.0,0.0,0.0,0.0025,0.0,0.0,0.0,0.0025,0.02,-0.0,0.01,0.02,0.0,0.0,0.0,0.02,0.0,0.0,0.0,0.02,-1.307338984375,-0.10533789062499999,9.71483484375,0.04,0.0,0.0,0.0,0.04,0.0,0.0,0.0,0.04
1614727019.1853094,13872,1614727019,184731960,base_imu_link,-0.02577461369219677,0.06058523645253432,0.29424440702600735,0.9534596621498582,0.0025,0.0,0.0,0.0,0.0025,0.0,0.0,0.0,0.0025,0.01,-0.0,0.02,0.02,0.0,0.0,0.0,0.02,0.0,0.0,0.0,0.02,-1.307338984375,-0.13406640625,9.743946406249998,0.04,0.0,0.0,0.0,0.04,0.0,0.0,0.0,0.04
1614727019.2051146,13873,1614727019,204767227,base_imu_link,-0.025815216366946565,0.06075619798230106,0.29407575719316015,0.9534997158059004,0.0025,0.0,0.0,0.0,0.0025,0.0,0.0,0.0,0.0025,0.01,-0.01,0.01,0.02,0.0,0.0,0.0,0.02,0.0,0.0,0.0,0.02,-1.3310878906249999,-0.15321875,9.767695312499999,0.04,0.0,0.0,0.0,0.04,0.0,0.0,0.0,0.04
1614727019.2254543,13874,1614727019,224997043,base_imu_link,-0.026136283826573195,0.0609311814035864,0.2940051411610366,0.953501579847343,0.0025,0.0,0.0,0.0,0.0025,0.0,0.0,0.0,0.0025,-0.0,-0.02,0.01,0.02,0.0,0.0,0.0,0.02,0.0,0.0,0.0,0.02,-1.3360675,-0.21067578124999997,9.686489374999999,0.04,0.0,0.0,0.0,0.04,0.0,0.0,0.0,0.04
1614727019.2454162,13875,1614727019,245002508,base_imu_link,-0.026613069249405336,0.06105955829204551,0.29377885668503456,0.9535499243621913,0.0025,0.0,0.0,0.0,0.0025,0.0,0.0,0.0,0.0025,-0.0,-0.01,0.01,0.02,0.0,0.0,0.0,0.02,0.0,0.0,0.0,0.02,-1.3119355468749998,-0.181947265625,9.643205078125,0.04,0.0,0.0,0.0,0.04,0.0,0.0,0.0,0.04
1614727019.265659,13876,1614727019,265237808,base_imu_link,-0.02695421420578338,0.06132030145064411,0.2936241833271077,0.9535712505796511,0.0025,0.0,0.0,0.0,0.0025,0.0,0.0,0.0,0.0025,0.01,0.0,0.01,0.02,0.0,0.0,0.0,0.02,0.0,0.0,0.0,0.02,-1.28320703125,-0.1149140625,9.662357421874999,0.04,0.0,0.0,0.0,0.04,0.0,0.0,0.0,0.04
1614727019.2858455,13877,1614727019,285401821,base_imu_link,-0.026786564115627454,0.06164455355929737,0.2936880789190776,0.9535353906909676,0.0025,0.0,0.0,0.0,0.0025,0.0,0.0,0.0,0.0025,0.01,0.01,0.01,0.02,0.0,0.0,0.0,0.02,0.0,0.0,0.0,0.02,-1.27861046875,-0.05745703125,9.7247940625,0.04,0.0,0.0,0.0,0.04,0.0,0.0,0.0,0.04
1614727019.3056479,13878,1614727019,305241107,base_imu_link,-0.026425494866850946,0.062031629851392614,0.2933249068149892,0.9536321456206265,0.0025,0.0,0.0,0.0,0.0025,0.0,0.0,0.0,0.0025,0.01,0.02,0.01,0.02,0.0,0.0,0.0,0.02,0.0,0.0,0.0,0.02,-1.307338984375,-0.028728515625,9.810596562499999,0.04,0.0,0.0,0.0,0.04,0.0,0.0,0.0,0.04
1614727019.325753,13879,1614727019,325289249,base_imu_link,-0.025975488989916334,0.062446275014417844,0.29287273114695617,0.9537564154746647,0.0025,0.0,0.0,0.0,0.0025,0.0,0.0,0.0,0.0025,0.0,0.02,0.01,0.02,0.0,0.0,0.0,0.02,0.0,0.0,0.0,0.02,-1.326491328125,-0.076609375,9.810596562499999,0.04,0.0,0.0,0.0,0.04,0.0,0.0,0.0,0.04
1614727019.3457148,13880,1614727019,345309734,base_imu_link,-0.02582416248813449,0.06276369365536982,0.2931856681321378,0.9536435368587327,0.0025,0.0,0.0,0.0,0.0025,0.0,0.0,0.0,0.0025,0.01,0.02,0.0,0.02,0.0,0.0,0.0,0.02,0.0,0.0,0.0,0.02,-1.350240234375,-0.047880859374999994,9.8872059375,0.04,0.0,0.0,0.0,0.04,0.0,0.0,0.0,0.04
1614727019.3657842,13881,1614727019,365331888,base_imu_link,-0.02540482066654356,0.06325903347947484,0.2928148433439905,0.953735999785883,0.0025,0.0,0.0,0.0,0.0025,0.0,0.0,0.0,0.0025,0.02,0.01,0.0,0.02,0.0,0.0,0.0,0.02,0.0,0.0,0.0,0.02,-1.3406640625,-0.08618554687499999,9.916317499999998,0.04,0.0,0.0,0.0,0.04,0.0,0.0,0.0,0.04
1614727019.3858075,13882,1614727019,385333061,base_imu_link,-0.02504641270293094,0.0632779923063919,0.2927940300130884,0.9537506114750761,0.0025,0.0,0.0,0.0,0.0025,0.0,0.0,0.0,0.0025,0.03,-0.01,0.0,0.02,0.0,0.0,0.0,0.02,0.0,0.0,0.0,0.02,-1.345643671875,-0.124490234375,9.90635828125,0.04,0.0,0.0,0.0,0.04,0.0,0.0,0.0,0.04
1614727019.4058502,13883,1614727019,405417680,base_imu_link,-0.024932174608130235,0.06322246979921421,0.2927065657103415,0.9537841330048717,0.0025,0.0,0.0,0.0,0.0025,0.0,0.0,0.0,0.0025,0.03,-0.03,0.01,0.02,0.0,0.0,0.0,0.02,0.0,0.0,0.0,0.02,-1.326491328125,-0.1578153125,9.772291874999999,0.04,0.0,0.0,0.0,0.04,0.0,0.0,0.0,0.04
1614727019.4258628,13884,1614727019,425443410,base_imu_link,-0.025082101873251827,0.06317795054731613,0.2924678866671866,0.9538563675935127,0.0025,0.0,0.0,0.0,0.0025,0.0,0.0,0.0,0.0025,0.02,-0.02,0.01,0.02,0.0,0.0,0.0,0.02,0.0,0.0,0.0,0.02,-1.2977628125,-0.15321875,9.686489374999999,0.04,0.0,0.0,0.0,0.04,0.0,0.0,0.0,0.04
1614727019.4458823,13885,1614727019,445458650,base_imu_link,-0.025123369053315792,0.06307574805580511,0.29222493395930177,0.9539365043372087,0.0025,0.0,0.0,0.0,0.0025,0.0,0.0,0.0,0.0025,0.02,-0.01,0.02,0.02,0.0,0.0,0.0,0.02,0.0,0.0,0.0,0.02,-1.269034296875,-0.12946984374999998,9.686489374999999,0.04,0.0,0.0,0.0,0.04,0.0,0.0,0.0,0.04
1614727019.4659023,13886,1614727019,465475082,base_imu_link,-0.025144763863333947,0.06288810282708104,0.29206644371794566,0.9539968657322832,0.0025,0.0,0.0,0.0,0.0025,0.0,0.0,0.0,0.0025,0.01,-0.01,0.03,0.02,0.0,0.0,0.0,0.02,0.0,0.0,0.0,0.02,-1.249881953125,-0.17237109374999998,9.66733703125,0.04,0.0,0.0,0.0,0.04,0.0,0.0,0.0,0.04
1614727019.4859328,13887,1614727019,485538721,base_imu_link,-0.02532888648057616,0.06237862836874512,0.2917614209256722,0.9541187701182284,0.0025,0.0,0.0,0.0,0.0025,0.0,0.0,0.0,0.0025,0.0,-0.02,0.02,0.02,0.0,0.0,0.0,0.02,0.0,0.0,0.0,0.02,-1.249881953125,-0.18654382812499998,9.662357421874999,0.04,0.0,0.0,0.0,0.04,0.0,0.0,0.0,0.04
1614727019.505846,13888,1614727019,505441188,base_imu_link,-0.025632823885656932,0.06192265375010982,0.2916267462348288,0.9541815257972026,0.0025,0.0,0.0,0.0,0.0025,0.0,0.0,0.0,0.0025,-0.0,-0.03,0.01,0.02,0.0,0.0,0.0,0.02,0.0,0.0,0.0,0.02,-1.269034296875,-0.17237109374999998,9.638225468749999,0.04,0.0,0.0,0.0,0.04,0.0,0.0,0.0,0.04
1614727019.5259097,13889,1614727019,525502920,base_imu_link,-0.02587722993696801,0.06184856237511341,0.29155967898524154,0.9542002294555079,0.0025,0.0,0.0,0.0,0.0025,0.0,0.0,0.0,0.0025,0.01,-0.01,-0.0,0.02,0.0,0.0,0.0,0.02,0.0,0.0,0.0,0.02,-1.269034296875,-0.181947265625,9.700662109375,0.04,0.0,0.0,0.0,0.04,0.0,0.0,0.0,0.04
1614727019.5461338,13890,1614727019,545725584,base_imu_link,-0.026074536383740125,0.06187869194137984,0.29165261127355246,0.9541645038321824,0.0025,0.0,0.0,0.0,0.0025,0.0,0.0,0.0,0.0025,0.01,0.01,-0.01,0.02,0.0,0.0,0.0,0.02,0.0,0.0,0.0,0.02,-1.292783203125,-0.19650304687499998,9.82974890625,0.04,0.0,0.0,0.0,0.04,0.0,0.0,0.0,0.04
1614727019.5661004,13891,1614727019,565661907,base_imu_link,-0.026353448157903622,0.061978117891549854,0.2913335083326796,0.9542478690546718,0.0025,0.0,0.0,0.0,0.0025,0.0,0.0,0.0,0.0025,0.02,0.02,-0.02,0.02,0.0,0.0,0.0,0.02,0.0,0.0,0.0,0.02,-1.3310878906249999,-0.19152343749999998,9.90635828125,0.04,0.0,0.0,0.0,0.04,0.0,0.0,0.0,0.04
1614727019.5860517,13892,1614727019,585587501,base_imu_link,-0.026454878544119813,0.06213314995836024,0.2908370346924682,0.9543864156245937,0.0025,0.0,0.0,0.0,0.0025,0.0,0.0,0.0,0.0025,0.03,-0.0,-0.02,0.02,0.0,0.0,0.0,0.02,0.0,0.0,0.0,0.02,-1.3743721875,-0.10533789062499999,9.8443046875,0.04,0.0,0.0,0.0,0.04,0.0,0.0,0.0,0.04
1614727019.605963,13893,1614727019,605570316,base_imu_link,-0.02620109425134525,0.06257705432953801,0.29047763014717504,0.9544738662297418,0.0025,0.0,0.0,0.0,0.0025,0.0,0.0,0.0,0.0025,0.03,-0.0,-0.01,0.02,0.0,0.0,0.0,0.02,0.0,0.0,0.0,0.02,-1.35521984375,-0.11031749999999999,9.700662109375,0.04,0.0,0.0,0.0,0.04,0.0,0.0,0.0,0.04
1614727019.6262941,13894,1614727019,625914812,base_imu_link,-0.0259722564593573,0.06310409404568054,0.2901167217579774,0.9545551859193304,0.0025,0.0,0.0,0.0,0.0025,0.0,0.0,0.0,0.0025,0.03,0.01,-0.01,0.02,0.0,0.0,0.0,0.02,0.0,0.0,0.0,0.02,-1.345643671875,-0.11031749999999999,9.681509765625,0.04,0.0,0.0,0.0,0.04,0.0,0.0,0.0,0.04
1614727019.646018,13895,1614727019,645682334,base_imu_link,-0.025809157166213487,0.06342550713718278,0.2902631830085789,0.9544937805143043,0.0025,0.0,0.0,0.0,0.0025,0.0,0.0,0.0,0.0025,0.02,-0.0,-0.0,0.02,0.0,0.0,0.0,0.02,0.0,0.0,0.0,0.02,-1.3598164062499998,-0.10074132812499999,9.662357421874999,0.04,0.0,0.0,0.0,0.04,0.0,0.0,0.0,0.04
1614727019.6661482,13896,1614727019,665680170,base_imu_link,-0.025754739913731072,0.06380493593973902,0.2904137941436967,0.9544241466417143,0.0025,0.0,0.0,0.0,0.0025,0.0,0.0,0.0,0.0025,0.02,-0.0,-0.01,0.02,0.0,0.0,0.0,0.02,0.0,0.0,0.0,0.02,-1.3406640625,-0.08120593749999999,9.71023828125,0.04,0.0,0.0,0.0,0.04,0.0,0.0,0.0,0.04
1614727019.686394,13897,1614727019,685890674,base_imu_link,-0.025430103582702885,0.06399627515047875,0.2901403659205269,0.9545031978270896,0.0025,0.0,0.0,0.0,0.0025,0.0,0.0,0.0,0.0025,0.02,-0.01,-0.01,0.02,0.0,0.0,0.0,0.02,0.0,0.0,0.0,0.02,-1.326491328125,-0.0383046875,9.782251093749998,0.04,0.0,0.0,0.0,0.04,0.0,0.0,0.0,0.04
1614727019.7063859,13898,1614727019,705971956,base_imu_link,-0.024968689195589963,0.06395405581687152,0.2901982990766062,0.9545005974421762,0.0025,0.0,0.0,0.0,0.0025,0.0,0.0,0.0,0.0025,0.02,-0.02,-0.0,0.02,0.0,0.0,0.0,0.02,0.0,0.0,0.0,0.02,-1.3215117187499998,-0.009576171875,9.806,0.04,0.0,0.0,0.0,0.04,0.0,0.0,0.0,0.04
1614727019.7266338,13899,1614727019,726182699,base_imu_link,-0.024393109255865728,0.06385605128435354,0.29016876999472335,0.9545310188018777,0.0025,0.0,0.0,0.0,0.0025,0.0,0.0,0.0,0.0025,0.01,-0.03,0.0,0.02,0.0,0.0,0.0,0.02,0.0,0.0,0.0,0.02,-1.3169151562499999,-0.028728515625,9.758119140624999,0.04,0.0,0.0,0.0,0.04,0.0,0.0,0.0,0.04
1614727019.7467284,13900,1614727019,746226072,base_imu_link,-0.024084076464191164,0.06367576552741606,0.29040597699255094,0.9544787701527815,0.0025,0.0,0.0,0.0,0.0025,0.0,0.0,0.0,0.0025,0.0,-0.03,0.0,0.02,0.0,0.0,0.0,0.02,0.0,0.0,0.0,0.02,-1.2977628125,-0.067033203125,9.733987187499999,0.04,0.0,0.0,0.0,0.04,0.0,0.0,0.0,0.04
1614727019.7665415,13901,1614727019,766063928,base_imu_link,-0.023939109331352966,0.06353866712394139,0.29023652587584253,0.9545430927265965,0.0025,0.0,0.0,0.0,0.0025,0.0,0.0,0.0,0.0025,0.0,-0.02,-0.0,0.02,0.0,0.0,0.0,0.02,0.0,0.0,0.0,0.02,-1.2977628125,-0.08618554687499999,9.76309875,0.04,0.0,0.0,0.0,0.04,0.0,0.0,0.0,0.04
1614727019.7867424,13902,1614727019,786299705,base_imu_link,-0.02394105599311862,0.06326548125108954,0.2901627784085587,0.954583609091539,0.0025,0.0,0.0,0.0,0.0025,0.0,0.0,0.0,0.0025,0.0,-0.03,0.01,0.02,0.0,0.0,0.0,0.02,0.0,0.0,0.0,0.02,-1.307338984375,-0.09576171874999999,9.76309875,0.04,0.0,0.0,0.0,0.04,0.0,0.0,0.0,0.04
1614727019.8069484,13903,1614727019,806507110,base_imu_link,-0.023915785571487755,0.06318216234505004,0.29016411044403206,0.9545893559914262,0.0025,0.0,0.0,0.0,0.0025,0.0,0.0,0.0,0.0025,0.01,-0.02,0.0,0.02,0.0,0.0,0.0,0.02,0.0,0.0,0.0,0.02,-1.3310878906249999,-0.10533789062499999,9.719814453124998,0.04,0.0,0.0,0.0,0.04,0.0,0.0,0.0,0.04
1614727019.826977,13904,1614727019,826539516,base_imu_link,-0.023904757839670984,0.06318633547472373,0.28999749875276026,0.9546399846429253,0.0025,0.0,0.0,0.0,0.0025,0.0,0.0,0.0,0.0025,0.01,-0.02,0.01,0.02,0.0,0.0,0.0,0.02,0.0,0.0,0.0,0.02,-1.3406640625,-0.076609375,9.743946406249998,0.04,0.0,0.0,0.0,0.04,0.0,0.0,0.0,0.04
1614727019.8470466,13905,1614727019,846585512,base_imu_link,-0.023826965859943528,0.06320956323563653,0.29007529073248783,0.9546167568820126,0.0025,0.0,0.0,0.0,0.0025,0.0,0.0,0.0,0.0025,0.01,-0.03,0.01,0.02,0.0,0.0,0.0,0.02,0.0,0.0,0.0,0.02,-1.3310878906249999,-0.0720128125,9.7247940625,0.04,0.0,0.0,0.0,0.04,0.0,0.0,0.0,0.04
1614727019.8671217,13906,1614727019,866648435,base_imu_link,-0.023785174799547316,0.0631324708674469,0.28982669780599457,0.9546984035918351,0.0025,0.0,0.0,0.0,0.0025,0.0,0.0,0.0,0.0025,0.0,-0.03,0.01,0.02,0.0,0.0,0.0,0.02,0.0,0.0,0.0,0.02,-1.3215117187499998,-0.08618554687499999,9.700662109375,0.04,0.0,0.0,0.0,0.04,0.0,0.0,0.0,0.04
1614727019.8870218,13907,1614727019,886577367,base_imu_link,-0.023870743232940944,0.06301344021474502,0.29025007141826437,0.9545755025201003,0.0025,0.0,0.0,0.0,0.0025,0.0,0.0,0.0,0.0025,0.0,-0.03,0.01,0.02,0.0,0.0,0.0,0.02,0.0,0.0,0.0,0.02,-1.302359375,-0.1578153125,9.6573778125,0.04,0.0,0.0,0.0,0.04,0.0,0.0,0.0,0.04
1614727019.9072428,13908,1614727019,906802177,base_imu_link,-0.0242400533219755,0.06281193522410145,0.28994560241670836,0.9546720003475345,0.0025,0.0,0.0,0.0,0.0025,0.0,0.0,0.0,0.0025,-0.0,-0.02,0.0,0.02,0.0,0.0,0.0,0.02,0.0,0.0,0.0,0.02,-1.3119355468749998,-0.22025195312499998,9.67193359375,0.04,0.0,0.0,0.0,0.04,0.0,0.0,0.0,0.04
1614727019.9274704,13909,1614727019,927000761,base_imu_link,-0.02495707097341695,0.06259726920301653,0.2894949506666796,0.954804377888607,0.0025,0.0,0.0,0.0,0.0025,0.0,0.0,0.0,0.0025,-0.0,-0.02,0.0,0.02,0.0,0.0,0.0,0.02,0.0,0.0,0.0,0.02,-1.3360675,-0.21067578124999997,9.662357421874999,0.04,0.0,0.0,0.0,0.04,0.0,0.0,0.0,0.04
1614727019.9471157,13910,1614727019,946668148,base_imu_link,-0.02570252284017704,0.06273749140846364,0.289200631407971,0.9548645884546427,0.0025,0.0,0.0,0.0,0.0025,0.0,0.0,0.0,0.0025,-0.01,-0.0,-0.0,0.02,0.0,0.0,0.0,0.02,0.0,0.0,0.0,0.02,-1.35521984375,-0.16739148437499998,9.71023828125,0.04,0.0,0.0,0.0,0.04,0.0,0.0,0.0,0.04
1614727019.965858,13911,1614727019,965381622,base_imu_link,-0.0262339661431846,0.06303262240892439,0.2890556469370911,0.9548745993618387,0.0025,0.0,0.0,0.0,0.0025,0.0,0.0,0.0,0.0025,-0.01,0.01,0.01,0.02,0.0,0.0,0.0,0.02,0.0,0.0,0.0,0.02,-1.364796015625,-0.1578153125,9.810596562499999,0.04,0.0,0.0,0.0,0.04,0.0,0.0,0.0,0.04
1614727019.9875329,13912,1614727019,987050533,base_imu_link,-0.0265288277146122,0.06330400800031533,0.2894787263632095,0.9547203207506995,0.0025,0.0,0.0,0.0,0.0025,0.0,0.0,0.0,0.0025,0.0,0.01,0.01,0.02,0.0,0.0,0.0,0.02,0.0,0.0,0.0,0.02,-1.39812109375,-0.139046015625,9.820555781249999,0.04,0.0,0.0,0.0,0.04,0.0,0.0,0.0,0.04
1614727020.0075486,13913,1614727020,7089138,base_imu_link,-0.02657698119842802,0.06374364130377698,0.2895507633870858,0.9546678834472593,0.0025,0.0,0.0,0.0,0.0025,0.0,0.0,0.0,0.0025,0.01,0.0,0.01,0.02,0.0,0.0,0.0,0.02,0.0,0.0,0.0,0.02,-1.39352453125,-0.13406640625,9.782251093749998,0.04,0.0,0.0,0.0,0.04,0.0,0.0,0.0,0.04
1614727020.027385,13914,1614727020,26941776,base_imu_link,-0.026646959508411453,0.06399596899773324,0.28946397585324013,0.9546753700521624,0.0025,0.0,0.0,0.0,0.0025,0.0,0.0,0.0,0.0025,0.01,-0.02,0.01,0.02,0.0,0.0,0.0,0.02,0.0,0.0,0.0,0.02,-1.388544921875,-0.06243664062499999,9.7247940625,0.04,0.0,0.0,0.0,0.04,0.0,0.0,0.0,0.04
1614727020.0476384,13915,1614727020,47187089,base_imu_link,-0.026422206683835745,0.06415508323339758,0.28944602695485,0.9546763796016557,0.0025,0.0,0.0,0.0,0.0025,0.0,0.0,0.0,0.0025,-0.01,-0.03,0.02,0.02,0.0,0.0,0.0,0.02,0.0,0.0,0.0,0.02,-1.3406640625,-0.06243664062499999,9.638225468749999,0.04,0.0,0.0,0.0,0.04,0.0,0.0,0.0,0.04
1614727020.0678258,13916,1614727020,67381143,base_imu_link,-0.026311603772615336,0.06418266335376888,0.29026783137509776,0.9544280335889802,0.0025,0.0,0.0,0.0,0.0025,0.0,0.0,0.0,0.0025,-0.01,-0.02,0.03,0.02,0.0,0.0,0.0,0.02,0.0,0.0,0.0,0.02,-1.27861046875,-0.10074132812499999,9.624052734374999,0.04,0.0,0.0,0.0,0.04,0.0,0.0,0.0,0.04
1614727020.087844,13917,1614727020,87396144,base_imu_link,-0.02638905105750558,0.06397229887855814,0.2909420760403356,0.9542347045406683,0.0025,0.0,0.0,0.0,0.0025,0.0,0.0,0.0,0.0025,-0.01,-0.0,0.02,0.02,0.0,0.0,0.0,0.02,0.0,0.0,0.0,0.02,-1.2640546874999998,-0.14364257812499998,9.691085937499999,0.04,0.0,0.0,0.0,0.04,0.0,0.0,0.0,0.04
1614727020.1079204,13918,1614727020,107438564,base_imu_link,-0.02655737805739644,0.06364855519988283,0.29087905826368826,0.954270894743895,0.0025,0.0,0.0,0.0,0.0025,0.0,0.0,0.0,0.0025,-0.01,-0.0,0.01,0.02,0.0,0.0,0.0,0.02,0.0,0.0,0.0,0.02,-1.292783203125,-0.15321875,9.74854296875,0.04,0.0,0.0,0.0,0.04,0.0,0.0,0.0,0.04
1614727020.1278877,13919,1614727020,127438068,base_imu_link,-0.026765278808017462,0.06349610994101519,0.29064702048152546,0.9543459400856166,0.0025,0.0,0.0,0.0,0.0025,0.0,0.0,0.0,0.0025,-0.01,-0.0,0.0,0.02,0.0,0.0,0.0,0.02,0.0,0.0,0.0,0.02,-1.2977628125,-0.139046015625,9.8014034375,0.04,0.0,0.0,0.0,0.04,0.0,0.0,0.0,0.04
1614727020.1478896,13920,1614727020,147471904,base_imu_link,-0.026873382285043854,0.06337615332442488,0.29015949134615604,0.9544992163936549,0.0025,0.0,0.0,0.0,0.0025,0.0,0.0,0.0,0.0025,-0.01,-0.0,0.0,0.02,0.0,0.0,0.0,0.02,0.0,0.0,0.0,0.02,-1.326491328125,-0.067033203125,9.8780128125,0.04,0.0,0.0,0.0,0.04,0.0,0.0,0.0,0.04
1614727020.1661723,13921,1614727020,165737390,base_imu_link,-0.02652911826745997,0.06348206540234785,0.28997075363261593,0.9545591628044517,0.0025,0.0,0.0,0.0,0.0025,0.0,0.0,0.0,0.0025,-0.0,0.0,0.01,0.02,0.0,0.0,0.0,0.02,0.0,0.0,0.0,0.02,-1.3215117187499998,-0.08618554687499999,9.916317499999998,0.04,0.0,0.0,0.0,0.04,0.0,0.0,0.0,0.04
1614727020.1877859,13922,1614727020,187335491,base_imu_link,-0.026253987808017534,0.06347465224875129,0.2899552966532244,0.9545719577846485,0.0025,0.0,0.0,0.0,0.0025,0.0,0.0,0.0,0.0025,0.01,-0.01,0.01,0.02,0.0,0.0,0.0,0.02,0.0,0.0,0.0,0.02,-1.350240234375,-0.08618554687499999,9.90635828125,0.04,0.0,0.0,0.0,0.04,0.0,0.0,0.0,0.04
1614727020.2079718,13923,1614727020,207549333,base_imu_link,-0.025956696444526656,0.06347629933796851,0.28960663065564834,0.9546858168069359,0.0025,0.0,0.0,0.0,0.0025,0.0,0.0,0.0,0.0025,0.01,-0.01,0.02,0.02,0.0,0.0,0.0,0.02,0.0,0.0,0.0,0.02,-1.3360675,-0.10533789062499999,9.82974890625,0.04,0.0,0.0,0.0,0.04,0.0,0.0,0.0,0.04
1614727020.2280092,13924,1614727020,227560997,base_imu_link,-0.025753798149376117,0.0634480057221685,0.2894301196322911,0.9547467194499274,0.0025,0.0,0.0,0.0,0.0025,0.0,0.0,0.0,0.0025,0.01,-0.02,0.03,0.02,0.0,0.0,0.0,0.02,0.0,0.0,0.0,0.02,-1.3360675,-0.090782109375,9.705641718749998,0.04,0.0,0.0,0.0,0.04,0.0,0.0,0.0,0.04
1614727020.2480235,13925,1614727020,247606277,base_imu_link,-0.025581621631570683,0.06350075250038135,0.28933572259624873,0.9547764527345085,0.0025,0.0,0.0,0.0,0.0025,0.0,0.0,0.0,0.0025,0.0,-0.01,0.03,0.02,0.0,0.0,0.0,0.02,0.0,0.0,0.0,0.02,-1.326491328125,-0.12946984374999998,9.652781249999999,0.04,0.0,0.0,0.0,0.04,0.0,0.0,0.0,0.04
1614727020.2682772,13926,1614727020,267829179,base_imu_link,-0.025784528080602512,0.06352909462977145,0.2895122339897456,0.9547156009081704,0.0025,0.0,0.0,0.0,0.0025,0.0,0.0,0.0,0.0025,-0.0,-0.01,0.03,0.02,0.0,0.0,0.0,0.02,0.0,0.0,0.0,0.02,-1.3169151562499999,-0.1578153125,9.738966796875,0.04,0.0,0.0,0.0,0.04,0.0,0.0,0.0,0.04
1614727020.2882702,13927,1614727020,287850856,base_imu_link,-0.02598408773197223,0.06328662403760393,0.28953121392480585,0.9547205384644706,0.0025,0.0,0.0,0.0,0.0025,0.0,0.0,0.0,0.0025,-0.0,-0.02,0.02,0.02,0.0,0.0,0.0,0.02,0.0,0.0,0.0,0.02,-1.3360675,-0.15321875,9.8014034375,0.04,0.0,0.0,0.0,0.04,0.0,0.0,0.0,0.04
1614727020.308297,13928,1614727020,307876825,base_imu_link,-0.0262033326034073,0.06312977151429887,0.28946561016495176,0.954744823416634,0.0025,0.0,0.0,0.0,0.0025,0.0,0.0,0.0,0.0025,-0.01,-0.03,0.02,0.02,0.0,0.0,0.0,0.02,0.0,0.0,0.0,0.02,-1.3360675,-0.13406640625,9.806,0.04,0.0,0.0,0.0,0.04,0.0,0.0,0.0,0.04
1614727020.3285298,13929,1614727020,328085184,base_imu_link,-0.026211100431171606,0.06285448633832066,0.28947454318857563,0.9547600644178089,0.0025,0.0,0.0,0.0,0.0025,0.0,0.0,0.0,0.0025,-0.0,-0.04,0.01,0.02,0.0,0.0,0.0,0.02,0.0,0.0,0.0,0.02,-1.350240234375,-0.13406640625,9.74854296875,0.04,0.0,0.0,0.0,0.04,0.0,0.0,0.0,0.04
1614727020.3485596,13930,1614727020,348109245,base_imu_link,-0.02629661143649908,0.06273441410153804,0.28989772380669704,0.9546372039921711,0.0025,0.0,0.0,0.0,0.0025,0.0,0.0,0.0,0.0025,-0.0,-0.03,0.01,0.02,0.0,0.0,0.0,0.02,0.0,0.0,0.0,0.02,-1.3598164062499998,-0.12946984374999998,9.700662109375,0.04,0.0,0.0,0.0,0.04,0.0,0.0,0.0,0.04
1614727020.3680892,13931,1614727020,367645740,base_imu_link,-0.026319601647079444,0.06291256669018312,0.2894788949811041,0.9547519347359875,0.0025,0.0,0.0,0.0,0.0025,0.0,0.0,0.0,0.0025,0.0,-0.02,0.01,0.02,0.0,0.0,0.0,0.02,0.0,0.0,0.0,0.02,-1.383948359375,-0.10533789062499999,9.691085937499999,0.04,0.0,0.0,0.0,0.04,0.0,0.0,0.0,0.04
1614727020.3882325,13932,1614727020,387857198,base_imu_link,-0.026359099097337697,0.0632619938891668,0.2898020700892731,0.9546297073713533,0.0025,0.0,0.0,0.0,0.0025,0.0,0.0,0.0,0.0025,0.0,-0.01,0.02,0.02,0.0,0.0,0.0,0.02,0.0,0.0,0.0,0.02,-1.412676875,-0.11989367187499998,9.6573778125,0.04,0.0,0.0,0.0,0.04,0.0,0.0,0.0,0.04
1614727020.408635,13933,1614727020,408185958,base_imu_link,-0.026696614001275626,0.0637970491321911,0.28972179040791296,0.9546090883108778,0.0025,0.0,0.0,0.0,0.0025,0.0,0.0,0.0,0.0025,-0.01,-0.01,0.02,0.02,0.0,0.0,0.0,0.02,0.0,0.0,0.0,0.02,-1.4268496093749998,-0.17237109374999998,9.614476562499998,0.04,0.0,0.0,0.0,0.04,0.0,0.0,0.0,0.04
1614727020.428652,13934,1614727020,428224563,base_imu_link,-0.027300741426170793,0.06424916550928157,0.2899083342041483,0.9545050403260938,0.0025,0.0,0.0,0.0,0.0025,0.0,0.0,0.0,0.0025,-0.02,-0.0,0.02,0.02,0.0,0.0,0.0,0.02,0.0,0.0,0.0,0.02,-1.35521984375,-0.22025195312499998,9.619073125,0.04,0.0,0.0,0.0,0.04,0.0,0.0,0.0,0.04
1614727020.4469836,13935,1614727020,446600914,base_imu_link,-0.028001503304677766,0.06439801944967,0.2901930539902347,0.9543881821981339,0.0025,0.0,0.0,0.0,0.0025,0.0,0.0,0.0,0.0025,-0.02,0.01,0.01,0.02,0.0,0.0,0.0,0.02,0.0,0.0,0.0,0.02,-1.269034296875,-0.21067578124999997,9.729390624999999,0.04,0.0,0.0,0.0,0.04,0.0,0.0,0.0,0.04
1614727020.4670446,13936,1614727020,466630697,base_imu_link,-0.028428392996878736,0.06408936154702342,0.2898956631510681,0.9544867126860972,0.0025,0.0,0.0,0.0,0.0025,0.0,0.0,0.0,0.0025,-0.01,0.01,0.01,0.02,0.0,0.0,0.0,0.02,0.0,0.0,0.0,0.02,-1.2736308593749999,-0.14862218749999997,9.82974890625,0.04,0.0,0.0,0.0,0.04,0.0,0.0,0.0,0.04
1614727020.4868433,13937,1614727020,486476182,base_imu_link,-0.028283539742393848,0.06395294584351285,0.2897255656526343,0.9545518103826729,0.0025,0.0,0.0,0.0,0.0025,0.0,0.0,0.0,0.0025,-0.0,0.02,0.01,0.02,0.0,0.0,0.0,0.02,0.0,0.0,0.0,0.02,-1.2544785156249998,-0.18654382812499998,9.86805359375,0.04,0.0,0.0,0.0,0.04,0.0,0.0,0.0,0.04
1614727020.5089328,13938,1614727020,508527517,base_imu_link,-0.028313140926358005,0.06349066183836086,0.2895752289544997,0.9546274083044968,0.0025,0.0,0.0,0.0,0.0025,0.0,0.0,0.0,0.0025,0.01,0.01,0.01,0.02,0.0,0.0,0.0,0.02,0.0,0.0,0.0,0.02,-1.2544785156249998,-0.16739148437499998,9.897165156249999,0.04,0.0,0.0,0.0,0.04,0.0,0.0,0.0,0.04
1614727020.5287652,13939,1614727020,528338432,base_imu_link,-0.028159766040990523,0.06308626187774322,0.28916370856485757,0.9547834837217428,0.0025,0.0,0.0,0.0,0.0025,0.0,0.0,0.0,0.0025,0.01,-0.01,0.01,0.02,0.0,0.0,0.0,0.02,0.0,0.0,0.0,0.02,-1.269034296875,-0.162794921875,9.863457031249999,0.04,0.0,0.0,0.0,0.04,0.0,0.0,0.0,0.04
1614727020.5488172,13940,1614727020,548388242,base_imu_link,-0.028045028980534813,0.06266460818589417,0.2893353373811737,0.9547626332093814,0.0025,0.0,0.0,0.0,0.0025,0.0,0.0,0.0,0.0025,0.0,-0.02,0.02,0.02,0.0,0.0,0.0,0.02,0.0,0.0,0.0,0.02,-1.2977628125,-0.1578153125,9.853880859375,0.04,0.0,0.0,0.0,0.04,0.0,0.0,0.0,0.04
1614727020.5689616,13941,1614727020,568524122,base_imu_link,-0.02784138919376726,0.06227067841350251,0.2894181615489032,0.9547692639707963,0.0025,0.0,0.0,0.0,0.0025,0.0,0.0,0.0,0.0025,0.0,-0.03,0.01,0.02,0.0,0.0,0.0,0.02,0.0,0.0,0.0,0.02,-1.3310878906249999,-0.181947265625,9.820555781249999,0.04,0.0,0.0,0.0,0.04,0.0,0.0,0.0,0.04
1614727020.589262,13942,1614727020,588822126,base_imu_link,-0.027927145022459684,0.06197255252960866,0.28934861933766337,0.9548072338389814,0.0025,0.0,0.0,0.0,0.0025,0.0,0.0,0.0,0.0025,-0.0,-0.04,0.01,0.02,0.0,0.0,0.0,0.02,0.0,0.0,0.0,0.02,-1.326491328125,-0.21067578124999997,9.76309875,0.04,0.0,0.0,0.0,0.04,0.0,0.0,0.0,0.04
1614727020.6089427,13943,1614727020,608516454,base_imu_link,-0.028116037929316173,0.061735000461171516,0.2892000712873419,0.9548620826572874,0.0025,0.0,0.0,0.0,0.0025,0.0,0.0,0.0,0.0025,0.0,-0.04,0.01,0.02,0.0,0.0,0.0,0.02,0.0,0.0,0.0,0.02,-1.307338984375,-0.24898046875,9.719814453124998,0.04,0.0,0.0,0.0,0.04,0.0,0.0,0.0,0.04
1614727020.6291187,13944,1614727020,628682613,base_imu_link,-0.02854595255010878,0.06133099805115176,0.28931836399509037,0.9548395265835307,0.0025,0.0,0.0,0.0,0.0025,0.0,0.0,0.0,0.0025,-0.01,-0.04,-0.0,0.02,0.0,0.0,0.0,0.02,0.0,0.0,0.0,0.02,-1.3406640625,-0.22025195312499998,9.729390624999999,0.04,0.0,0.0,0.0,0.04,0.0,0.0,0.0,0.04
1614727020.6490524,13945,1614727020,648699283,base_imu_link,-0.02887925267556261,0.06123000315594069,0.2893397549253637,0.9548295039943807,0.0025,0.0,0.0,0.0,0.0025,0.0,0.0,0.0,0.0025,-0.01,-0.03,-0.0,0.02,0.0,0.0,0.0,0.02,0.0,0.0,0.0,0.02,-1.3310878906249999,-0.20607921875,9.729390624999999,0.04,0.0,0.0,0.0,0.04,0.0,0.0,0.0,0.04
1614727020.6694374,13946,1614727020,668912172,base_imu_link,-0.029057660941885242,0.06099768098325424,0.28902413333333493,0.9549345451946779,0.0025,0.0,0.0,0.0,0.0025,0.0,0.0,0.0,0.0025,-0.01,-0.04,0.0,0.02,0.0,0.0,0.0,0.02,0.0,0.0,0.0,0.02,-1.3119355468749998,-0.18654382812499998,9.71483484375,0.04,0.0,0.0,0.0,0.04,0.0,0.0,0.0,0.04
1614727020.6896331,13947,1614727020,689081192,base_imu_link,-0.029105259230849275,0.06089417092311697,0.2888636080568379,0.9549882720604881,0.0025,0.0,0.0,0.0,0.0025,0.0,0.0,0.0,0.0025,-0.01,-0.04,0.0,0.02,0.0,0.0,0.0,0.02,0.0,0.0,0.0,0.02,-1.292783203125,-0.229828125,9.585748046874999,0.04,0.0,0.0,0.0,0.04,0.0,0.0,0.0,0.04
1614727020.7090445,13948,1614727020,708660364,base_imu_link,-0.029369735424371587,0.06090704449635708,0.2887120588508486,0.955025181681575,0.0025,0.0,0.0,0.0,0.0025,0.0,0.0,0.0,0.0025,0.0,-0.01,-0.0,0.02,0.0,0.0,0.0,0.02,0.0,0.0,0.0,0.02,-1.302359375,-0.26353624999999997,9.566595703125,0.04,0.0,0.0,0.0,0.04,0.0,0.0,0.0,0.04
1614727020.7295864,13949,1614727020,729166507,base_imu_link,-0.029791067723154707,0.061241352632419976,0.28814598606995506,0.9551617034426365,0.0025,0.0,0.0,0.0,0.0025,0.0,0.0,0.0,0.0025,0.01,0.02,-0.01,0.02,0.0,0.0,0.0,0.02,0.0,0.0,0.0,0.02,-1.288186640625,-0.28728515624999995,9.729390624999999,0.04,0.0,0.0,0.0,0.04,0.0,0.0,0.0,0.04
1614727020.7495425,13950,1614727020,749078035,base_imu_link,-0.03008002498234033,0.061258321593524734,0.28708282977474237,0.9554716421648172,0.0025,0.0,0.0,0.0,0.0025,0.0,0.0,0.0,0.0025,0.01,0.01,-0.02,0.02,0.0,0.0,0.0,0.02,0.0,0.0,0.0,0.02,-1.292783203125,-0.22025195312499998,9.892185546875,0.04,0.0,0.0,0.0,0.04,0.0,0.0,0.0,0.04
1614727020.7694087,13951,1614727020,768961906,base_imu_link,-0.029961035739806484,0.06120518542140464,0.286911469128008,0.95553025619168,0.0025,0.0,0.0,0.0,0.0025,0.0,0.0,0.0,0.0025,0.02,-0.0,-0.02,0.02,0.0,0.0,0.0,0.02,0.0,0.0,0.0,0.02,-1.2977628125,-0.13406640625,9.897165156249999,0.04,0.0,0.0,0.0,0.04,0.0,0.0,0.0,0.04
1614727020.7894185,13952,1614727020,788986206,base_imu_link,-0.02933818128683995,0.06120847201516417,0.2870423998464101,0.9555100495352014,0.0025,0.0,0.0,0.0,0.0025,0.0,0.0,0.0,0.0025,0.02,-0.01,-0.01,0.02,0.0,0.0,0.0,0.02,0.0,0.0,0.0,0.02,-1.292783203125,-0.090782109375,9.853880859375,0.04,0.0,0.0,0.0,0.04,0.0,0.0,0.0,0.04
1614727020.8096533,13953,1614727020,809237480,base_imu_link,-0.02870996086635562,0.061214460791807805,0.28709003687940715,0.9555144366578671,0.0025,0.0,0.0,0.0,0.0025,0.0,0.0,0.0,0.0025,0.02,-0.02,0.0,0.02,0.0,0.0,0.0,0.02,0.0,0.0,0.0,0.02,-1.2977628125,-0.124490234375,9.782251093749998,0.04,0.0,0.0,0.0,0.04,0.0,0.0,0.0,0.04
1614727020.8296201,13954,1614727020,829200744,base_imu_link,-0.028271321718182293,0.06098346440493595,0.28698874594611123,0.9555727126376921,0.0025,0.0,0.0,0.0,0.0025,0.0,0.0,0.0,0.0025,0.0,-0.04,0.01,0.02,0.0,0.0,0.0,0.02,0.0,0.0,0.0,0.02,-1.307338984375,-0.139046015625,9.76309875,0.04,0.0,0.0,0.0,0.04,0.0,0.0,0.0,0.04
1614727020.8499455,13955,1614727020,849495410,base_imu_link,-0.028129022047310954,0.060750880389943515,0.2872361962099168,0.9555173762090183,0.0025,0.0,0.0,0.0,0.0025,0.0,0.0,0.0,0.0025,-0.0,-0.04,0.01,0.02,0.0,0.0,0.0,0.02,0.0,0.0,0.0,0.02,-1.288186640625,-0.13406640625,9.719814453124998,0.04,0.0,0.0,0.0,0.04,0.0,0.0,0.0,0.04
1614727020.8699126,13956,1614727020,869500398,base_imu_link,-0.027803979630746375,0.06057582649008419,0.28722294166122636,0.9555419874318489,0.0025,0.0,0.0,0.0,0.0025,0.0,0.0,0.0,0.0025,0.01,-0.04,0.01,0.02,0.0,0.0,0.0,0.02,0.0,0.0,0.0,0.02,-1.2640546874999998,-0.15321875,9.691085937499999,0.04,0.0,0.0,0.0,0.04,0.0,0.0,0.0,0.04
1614727020.889922,13957,1614727020,889461517,base_imu_link,-0.027551775202018534,0.0603805112743248,0.28704826688138757,0.9556141407607258,0.0025,0.0,0.0,0.0,0.0025,0.0,0.0,0.0,0.0025,0.01,-0.03,0.01,0.02,0.0,0.0,0.0,0.02,0.0,0.0,0.0,0.02,-1.288186640625,-0.14364257812499998,9.705641718749998,0.04,0.0,0.0,0.0,0.04,0.0,0.0,0.0,0.04
1614727020.9100611,13958,1614727020,909551620,base_imu_link,-0.027281911907639664,0.060369854736554186,0.28711675363866007,0.9556019818427273,0.0025,0.0,0.0,0.0,0.0025,0.0,0.0,0.0,0.0025,0.01,-0.03,0.0,0.02,0.0,0.0,0.0,0.02,0.0,0.0,0.0,0.02,-1.292783203125,-0.181947265625,9.767695312499999,0.04,0.0,0.0,0.0,0.04,0.0,0.0,0.0,0.04
1614727020.9298773,13959,1614727020,929356336,base_imu_link,-0.027370569781185995,0.06034241054023722,0.28720541151220635,0.9555745376464103,0.0025,0.0,0.0,0.0,0.0025,0.0,0.0,0.0,0.0025,0.01,-0.02,-0.0,0.02,0.0,0.0,0.0,0.02,0.0,0.0,0.0,0.02,-1.2977628125,-0.18654382812499998,9.806,0.04,0.0,0.0,0.0,0.04,0.0,0.0,0.0,0.04
1614727020.9499853,13960,1614727020,949516057,base_imu_link,-0.02716829701642249,0.060313860116435455,0.2870290071479327,0.9556351139272533,0.0025,0.0,0.0,0.0,0.0025,0.0,0.0,0.0,0.0025,0.02,-0.02,0.0,0.02,0.0,0.0,0.0,0.02,0.0,0.0,0.0,0.02,-1.2977628125,-0.13406640625,9.796423828124999,0.04,0.0,0.0,0.0,0.04,0.0,0.0,0.0,0.04
1614727020.9697087,13961,1614727020,969366312,base_imu_link,-0.02682417113503125,0.06041873108559992,0.286841140345264,0.9556946170102419,0.0025,0.0,0.0,0.0,0.0025,0.0,0.0,0.0,0.0025,0.03,-0.02,0.01,0.02,0.0,0.0,0.0,0.02,0.0,0.0,0.0,0.02,-1.269034296875,-0.14364257812499998,9.733987187499999,0.04,0.0,0.0,0.0,0.04,0.0,0.0,0.0,0.04
1614727020.9900956,13962,1614727020,989676237,base_imu_link,-0.026549028602575117,0.06041039626707627,0.2868262768832959,0.9557072878200633,0.0025,0.0,0.0,0.0,0.0025,0.0,0.0,0.0,0.0025,0.02,-0.02,0.01,0.02,0.0,0.0,0.0,0.02,0.0,0.0,0.0,0.02,-1.2736308593749999,-0.16739148437499998,9.66733703125,0.04,0.0,0.0,0.0,0.04,0.0,0.0,0.0,0.04
1614727021.0102198,13963,1614727021,9770393,base_imu_link,-0.026476174875899657,0.06043080630777111,0.28698780241248945,0.9556595267559379,0.0025,0.0,0.0,0.0,0.0025,0.0,0.0,0.0,0.0025,0.02,-0.01,0.01,0.02,0.0,0.0,0.0,0.02,0.0,0.0,0.0,0.02,-1.2544785156249998,-0.1578153125,9.648184687499999,0.04,0.0,0.0,0.0,0.04,0.0,0.0,0.0,0.04
1614727021.0303686,13964,1614727021,29948234,base_imu_link,-0.02642830034492652,0.06053466185945706,0.28714833732364364,0.9556060548294503,0.0025,0.0,0.0,0.0,0.0025,0.0,0.0,0.0,0.0025,0.02,0.0,0.01,0.02,0.0,0.0,0.0,0.02,0.0,0.0,0.0,0.02,-1.24490234375,-0.13406640625,9.743946406249998,0.04,0.0,0.0,0.0,0.04,0.0,0.0,0.0,0.04
1614727021.050288,13965,1614727021,49871206,base_imu_link,-0.026231262931645474,0.060503648587817344,0.28705536836521817,0.9556413787845739,0.0025,0.0,0.0,0.0,0.0025,0.0,0.0,0.0,0.0025,0.02,-0.01,0.01,0.02,0.0,0.0,0.0,0.02,0.0,0.0,0.0,0.02,-1.2640546874999998,-0.15321875,9.782251093749998,0.04,0.0,0.0,0.0,0.04,0.0,0.0,0.0,0.04
1614727021.0703146,13966,1614727021,69895744,base_imu_link,-0.0260553354894584,0.06046350808662311,0.28729599021406693,0.9555764216897094,0.0025,0.0,0.0,0.0,0.0025,0.0,0.0,0.0,0.0025,0.03,-0.01,0.01,0.02,0.0,0.0,0.0,0.02,0.0,0.0,0.0,0.02,-1.288186640625,-0.18654382812499998,9.79144421875,0.04,0.0,0.0,0.0,0.04,0.0,0.0,0.0,0.04
1614727021.090304,13967,1614727021,89883327,base_imu_link,-0.026040885009742356,0.06037554909916225,0.2874637726010075,0.9555319172172535,0.0025,0.0,0.0,0.0,0.0025,0.0,0.0,0.0,0.0025,0.03,-0.02,0.01,0.02,0.0,0.0,0.0,0.02,0.0,0.0,0.0,0.02,-1.307338984375,-0.1578153125,9.76309875,0.04,0.0,0.0,0.0,0.04,0.0,0.0,0.0,0.04
1614727021.110401,13968,1614727021,109964609,base_imu_link,-0.02598778059905612,0.06048177764885285,0.2875408727520187,0.9555034465290941,0.0025,0.0,0.0,0.0,0.0025,0.0,0.0,0.0,0.0025,0.02,-0.02,0.01,0.02,0.0,0.0,0.0,0.02,0.0,0.0,0.0,0.02,-1.28320703125,-0.13406640625,9.686489374999999,0.04,0.0,0.0,0.0,0.04,0.0,0.0,0.0,0.04
1614727021.1306248,13969,1614727021,130184173,base_imu_link,-0.025840735122175655,0.06061762498016253,0.2874458961746879,0.955527402392229,0.0025,0.0,0.0,0.0,0.0025,0.0,0.0,0.0,0.0025,0.01,-0.01,0.01,0.02,0.0,0.0,0.0,0.02,0.0,0.0,0.0,0.02,-1.28320703125,-0.1149140625,9.662357421874999,0.04,0.0,0.0,0.0,0.04,0.0,0.0,0.0,0.04
1614727021.1505873,13970,1614727021,150160074,base_imu_link,-0.025745207316544776,0.06082562766399002,0.2877667359453636,0.9554201866209764,0.0025,0.0,0.0,0.0,0.0025,0.0,0.0,0.0,0.0025,0.01,-0.01,0.02,0.02,0.0,0.0,0.0,0.02,0.0,0.0,0.0,0.02,-1.2977628125,-0.15321875,9.67653015625,0.04,0.0,0.0,0.0,0.04,0.0,0.0,0.0,0.04
1614727021.1706953,13971,1614727021,170250892,base_imu_link,-0.025887698608491154,0.06105749197446263,0.2875187618820635,0.9554762013259931,0.0025,0.0,0.0,0.0,0.0025,0.0,0.0,0.0,0.0025,0.01,-0.0,0.02,0.02,0.0,0.0,0.0,0.02,0.0,0.0,0.0,0.02,-1.3169151562499999,-0.16739148437499998,9.767695312499999,0.04,0.0,0.0,0.0,0.04,0.0,0.0,0.0,0.04
1614727021.190783,13972,1614727021,190274715,base_imu_link,-0.026088463501558655,0.06118095103814715,0.28727718790543033,0.9555355046314835,0.0025,0.0,0.0,0.0,0.0025,0.0,0.0,0.0,0.0025,0.01,-0.01,0.01,0.02,0.0,0.0,0.0,0.02,0.0,0.0,0.0,0.02,-1.3215117187499998,-0.14862218749999997,9.8014034375,0.04,0.0,0.0,0.0,0.04,0.0,0.0,0.0,0.04
1614727021.2107425,13973,1614727021,210265636,base_imu_link,-0.026113451104047714,0.06126436160606882,0.28727614742801505,0.9555297906331098,0.0025,0.0,0.0,0.0,0.0025,0.0,0.0,0.0,0.0025,0.0,-0.02,0.01,0.02,0.0,0.0,0.0,0.02,0.0,0.0,0.0,0.02,-1.2977628125,-0.162794921875,9.8014034375,0.04,0.0,0.0,0.0,0.04,0.0,0.0,0.0,0.04
1614727021.2307136,13974,1614727021,230298042,base_imu_link,-0.026239230601709775,0.061137682288199026,0.2870376943636308,0.955606115821926,0.0025,0.0,0.0,0.0,0.0025,0.0,0.0,0.0,0.0025,0.01,-0.02,0.01,0.02,0.0,0.0,0.0,0.02,0.0,0.0,0.0,0.02,-1.269034296875,-0.17696765625,9.74854296875,0.04,0.0,0.0,0.0,0.04,0.0,0.0,0.0,0.04
1614727021.2507114,13975,1614727021,250314235,base_imu_link,-0.02628700639067398,0.06103380432756312,0.2868772537981137,0.9556596199890284,0.0025,0.0,0.0,0.0,0.0025,0.0,0.0,0.0,0.0025,0.01,-0.01,0.0,0.02,0.0,0.0,0.0,0.02,0.0,0.0,0.0,0.02,-1.2640546874999998,-0.19152343749999998,9.7247940625,0.04,0.0,0.0,0.0,0.04,0.0,0.0,0.0,0.04
1614727021.270641,13976,1614727021,270162343,base_imu_link,-0.026418221433799082,0.0609049228117026,0.28672210042094237,0.9557107852712442,0.0025,0.0,0.0,0.0,0.0025,0.0,0.0,0.0,0.0025,0.01,-0.01,-0.0,0.02,0.0,0.0,0.0,0.02,0.0,0.0,0.0,0.02,-1.24490234375,-0.201099609375,9.719814453124998,0.04,0.0,0.0,0.0,0.04,0.0,0.0,0.0,0.04
1614727021.2908382,13977,1614727021,290390014,base_imu_link,-0.026632889106960957,0.060751078384650825,0.28657220051063415,0.9557595772930614,0.0025,0.0,0.0,0.0,0.0025,0.0,0.0,0.0,0.0025,0.01,-0.0,-0.0,0.02,0.0,0.0,0.0,0.02,0.0,0.0,0.0,0.02,-1.259458125,-0.17237109374999998,9.738966796875,0.04,0.0,0.0,0.0,0.04,0.0,0.0,0.0,0.04
1614727021.310818,13978,1614727021,310431718,base_imu_link,-0.026607970206021746,0.06066764565991858,0.2865731695250287,0.9557652803905241,0.0025,0.0,0.0,0.0,0.0025,0.0,0.0,0.0,0.0025,0.02,-0.01,-0.0,0.02,0.0,0.0,0.0,0.02,0.0,0.0,0.0,0.02,-1.24490234375,-0.17237109374999998,9.758119140624999,0.04,0.0,0.0,0.0,0.04,0.0,0.0,0.0,0.04
1614727021.3308403,13979,1614727021,330430030,base_imu_link,-0.026551325640482043,0.060598123020795966,0.2860736565840521,0.9559208950544598,0.0025,0.0,0.0,0.0,0.0025,0.0,0.0,0.0,0.0025,0.01,-0.0,-0.0,0.02,0.0,0.0,0.0,0.02,0.0,0.0,0.0,0.02,-1.24030578125,-0.21565539062499997,9.75313953125,0.04,0.0,0.0,0.0,0.04,0.0,0.0,0.0,0.04
1614727021.3510284,13980,1614727021,350649595,base_imu_link,-0.02678045600870206,0.06053257886714387,0.28575581700668434,0.9560137170137787,0.0025,0.0,0.0,0.0,0.0025,0.0,0.0,0.0,0.0025,0.01,0.0,-0.01,0.02,0.0,0.0,0.0,0.02,0.0,0.0,0.0,0.02,-1.24490234375,-0.20607921875,9.772291874999999,0.04,0.0,0.0,0.0,0.04,0.0,0.0,0.0,0.04
1614727021.3711329,13981,1614727021,370682954,base_imu_link,-0.02691719653715685,0.060401597571972276,0.28568387174151866,0.9560396628634761,0.0025,0.0,0.0,0.0,0.0025,0.0,0.0,0.0,0.0025,0.02,0.0,-0.01,0.02,0.0,0.0,0.0,0.02,0.0,0.0,0.0,0.02,-1.2544785156249998,-0.162794921875,9.78684765625,0.04,0.0,0.0,0.0,0.04,0.0,0.0,0.0,0.04
1614727021.39101,13982,1614727021,390561103,base_imu_link,-0.026678076657711727,0.060388971190189884,0.28492329251326737,0.9562741080714434,0.0025,0.0,0.0,0.0,0.0025,0.0,0.0,0.0,0.0025,0.02,-0.01,-0.01,0.02,0.0,0.0,0.0,0.02,0.0,0.0,0.0,0.02,-1.2544785156249998,-0.17696765625,9.7247940625,0.04,0.0,0.0,0.0,0.04,0.0,0.0,0.0,0.04
1614727021.4112668,13983,1614727021,410814523,base_imu_link,-0.02659989789796714,0.060411514159101946,0.28500147127301206,0.9562515651025313,0.0025,0.0,0.0,0.0,0.0025,0.0,0.0,0.0,0.0025,0.03,0.0,-0.01,0.02,0.0,0.0,0.0,0.02,0.0,0.0,0.0,0.02,-1.259458125,-0.19152343749999998,9.585748046874999,0.04,0.0,0.0,0.0,0.04,0.0,0.0,0.0,0.04
1614727021.4314387,13984,1614727021,430952310,base_imu_link,-0.026723796582795167,0.06082888693242486,0.28499675718494194,0.9562230564072542,0.0025,0.0,0.0,0.0,0.0025,0.0,0.0,0.0,0.0025,0.03,0.02,-0.01,0.02,0.0,0.0,0.0,0.02,0.0,0.0,0.0,0.02,-1.28320703125,-0.090782109375,9.66733703125,0.04,0.0,0.0,0.0,0.04,0.0,0.0,0.0,0.04
1614727021.4512908,13985,1614727021,450824737,base_imu_link,-0.026144641731664104,0.061366288541582596,0.284783281756169,0.956268329900944,0.0025,0.0,0.0,0.0,0.0025,0.0,0.0,0.0,0.0025,0.04,0.02,-0.01,0.02,0.0,0.0,0.0,0.02,0.0,0.0,0.0,0.02,-1.3406640625,0.009576171875,9.758119140624999,0.04,0.0,0.0,0.0,0.04,0.0,0.0,0.0,0.04
1614727021.4715757,13986,1614727021,471149206,base_imu_link,-0.02516296623130017,0.062199646266115044,0.28528545607829636,0.9560911241534519,0.0025,0.0,0.0,0.0,0.0025,0.0,0.0,0.0,0.0025,0.04,0.01,0.01,0.02,0.0,0.0,0.0,0.02,0.0,0.0,0.0,0.02,-1.3743721875,-0.076609375,9.652781249999999,0.04,0.0,0.0,0.0,0.04,0.0,0.0,0.0,0.04
1614727021.491594,13987,1614727021,491168975,base_imu_link,-0.024913326405064863,0.0630892266740966,0.2856593030993931,0.955927736912089,0.0025,0.0,0.0,0.0,0.0025,0.0,0.0,0.0,0.0025,0.04,0.03,0.01,0.02,0.0,0.0,0.0,0.02,0.0,0.0,0.0,0.02,-1.39812109375,-0.26353624999999997,9.5807684375,0.04,0.0,0.0,0.0,0.04,0.0,0.0,0.0,0.04
1614727021.5115118,13988,1614727021,511048078,base_imu_link,-0.02558406776179407,0.06398370821572039,0.28500532594714084,0.9560457649827697,0.0025,0.0,0.0,0.0,0.0025,0.0,0.0,0.0,0.0025,0.04,0.04,-0.01,0.02,0.0,0.0,0.0,0.02,0.0,0.0,0.0,0.02,-1.4222530468749999,-0.292264765625,9.662357421874999,0.04,0.0,0.0,0.0,0.04,0.0,0.0,0.0,0.04
1614727021.531496,13989,1614727021,531072854,base_imu_link,-0.026482530686512143,0.06462616238089147,0.2847882773583449,0.9560427667126733,0.0025,0.0,0.0,0.0,0.0025,0.0,0.0,0.0,0.0025,0.03,0.03,-0.02,0.02,0.0,0.0,0.0,0.02,0.0,0.0,0.0,0.02,-1.4268496093749998,-0.201099609375,9.78684765625,0.04,0.0,0.0,0.0,0.04,0.0,0.0,0.0,0.04
1614727021.5517478,13990,1614727021,551305532,base_imu_link,-0.026811404944470495,0.06516530847232599,0.2846247225361813,0.9560457093977317,0.0025,0.0,0.0,0.0,0.0025,0.0,0.0,0.0,0.0025,0.02,0.01,-0.0,0.02,0.0,0.0,0.0,0.02,0.0,0.0,0.0,0.02,-1.383948359375,-0.13406640625,9.925510625,0.04,0.0,0.0,0.0,0.04,0.0,0.0,0.0,0.04
1614727021.5719326,13991,1614727021,571518898,base_imu_link,-0.02677748329184866,0.06535705655737915,0.2846167248015514,0.9560359519965492,0.0025,0.0,0.0,0.0,0.0025,0.0,0.0,0.0,0.0025,0.01,0.01,0.01,0.02,0.0,0.0,0.0,0.02,0.0,0.0,0.0,0.02,-1.364796015625,-0.10533789062499999,9.95921875,0.04,0.0,0.0,0.0,0.04,0.0,0.0,0.0,0.04
1614727021.591787,13992,1614727021,591341257,base_imu_link,-0.0266749965622926,0.0652961114987874,0.28469561308092217,0.9560194926224138,0.0025,0.0,0.0,0.0,0.0025,0.0,0.0,0.0,0.0025,0.0,-0.0,0.02,0.02,0.0,0.0,0.0,0.02,0.0,0.0,0.0,0.02,-1.3406640625,-0.124490234375,9.930490234374998,0.04,0.0,0.0,0.0,0.04,0.0,0.0,0.0,0.04
1614727021.61206,13993,1614727021,611598014,base_imu_link,-0.026693373301642245,0.06492348354478207,0.2852064577318407,0.9558920867829408,0.0025,0.0,0.0,0.0,0.0025,0.0,0.0,0.0,0.0025,-0.01,-0.02,0.03,0.02,0.0,0.0,0.0,0.02,0.0,0.0,0.0,0.02,-1.3310878906249999,-0.09576171874999999,9.825152343749998,0.04,0.0,0.0,0.0,0.04,0.0,0.0,0.0,0.04
1614727021.6320448,13994,1614727021,631623268,base_imu_link,-0.02655577488018821,0.06441818929714395,0.2853801549603167,0.955878263620957,0.0025,0.0,0.0,0.0,0.0025,0.0,0.0,0.0,0.0025,-0.02,-0.04,0.03,0.02,0.0,0.0,0.0,0.02,0.0,0.0,0.0,0.02,-1.2977628125,-0.10533789062499999,9.62903234375,0.04,0.0,0.0,0.0,0.04,0.0,0.0,0.0,0.04
1614727021.652243,13995,1614727021,651813983,base_imu_link,-0.026757003171707656,0.06398871232415827,0.2861521271153042,0.955670689946988,0.0025,0.0,0.0,0.0,0.0025,0.0,0.0,0.0,0.0025,-0.03,-0.04,0.03,0.02,0.0,0.0,0.0,0.02,0.0,0.0,0.0,0.02,-1.259458125,-0.11031749999999999,9.54246375,0.04,0.0,0.0,0.0,0.04,0.0,0.0,0.0,0.04
1614727021.6721423,13996,1614727021,671696424,base_imu_link,-0.02687420056245992,0.06358398330948097,0.28691817227874067,0.9554647124969375,0.0025,0.0,0.0,0.0,0.0025,0.0,0.0,0.0,0.0025,-0.03,-0.01,0.02,0.02,0.0,0.0,0.0,0.02,0.0,0.0,0.0,0.02,-1.2640546874999998,-0.10074132812499999,9.566595703125,0.04,0.0,0.0,0.0,0.04,0.0,0.0,0.0,0.04
1614727021.6905458,13997,1614727021,690027475,base_imu_link,-0.0271520481029628,0.06349702485839236,0.28735167841035125,0.9553323542268948,0.0025,0.0,0.0,0.0,0.0025,0.0,0.0,0.0,0.0025,-0.03,0.01,0.01,0.02,0.0,0.0,0.0,0.02,0.0,0.0,0.0,0.02,-1.3119355468749998,-0.06243664062499999,9.6956825,0.04,0.0,0.0,0.0,0.04,0.0,0.0,0.0,0.04
1614727021.7104979,13998,1614727021,710079193,base_imu_link,-0.0270158514532472,0.06362821367556333,0.28742286910778425,0.9553060705912857,0.0025,0.0,0.0,0.0,0.0025,0.0,0.0,0.0,0.0025,-0.02,0.01,0.0,0.02,0.0,0.0,0.0,0.02,0.0,0.0,0.0,0.02,-1.35521984375,-0.004979609375,9.916317499999998,0.04,0.0,0.0,0.0,0.04,0.0,0.0,0.0,0.04
1614727021.7324178,13999,1614727021,731952667,base_imu_link,-0.026457322007270162,0.06369962662051949,0.288135312944295,0.9551023029577005,0.0025,0.0,0.0,0.0,0.0025,0.0,0.0,0.0,0.0025,-0.01,-0.02,0.0,0.02,0.0,0.0,0.0,0.02,0.0,0.0,0.0,0.02,-1.383948359375,-0.0383046875,9.9209140625,0.04,0.0,0.0,0.0,0.04,0.0,0.0,0.0,0.04
1614727021.7521536,14000,1614727021,751738309,base_imu_link,-0.025876618823506087,0.06396803466519198,0.28776173572351316,0.9552128949049666,0.0025,0.0,0.0,0.0,0.0025,0.0,0.0,0.0,0.0025,0.02,-0.02,-0.01,0.02,0.0,0.0,0.0,0.02,0.0,0.0,0.0,0.02,-1.383948359375,-0.1578153125,9.686489374999999,0.04,0.0,0.0,0.0,0.04,0.0,0.0,0.0,0.04
1614727021.7722454,14001,1614727021,771812677,base_imu_link,-0.025962474939409178,0.06440080042544434,0.2871721866592038,0.9553588969643576,0.0025,0.0,0.0,0.0,0.0025,0.0,0.0,0.0,0.0025,0.04,0.01,-0.03,0.02,0.0,0.0,0.0,0.02,0.0,0.0,0.0,0.02,-1.383948359375,-0.16739148437499998,9.59072765625,0.04,0.0,0.0,0.0,0.04,0.0,0.0,0.0,0.04
1614727021.7922792,14002,1614727021,791860580,base_imu_link,-0.02601769263371205,0.06493075047034746,0.2869925227227569,0.9553755121493345,0.0025,0.0,0.0,0.0,0.0025,0.0,0.0,0.0,0.0025,0.04,0.02,-0.03,0.02,0.0,0.0,0.0,0.02,0.0,0.0,0.0,0.02,-1.407697265625,-0.08618554687499999,9.614476562499998,0.04,0.0,0.0,0.0,0.04,0.0,0.0,0.0,0.04
1614727021.8123555,14003,1614727021,811887025,base_imu_link,-0.02592521043804294,0.06559641706425225,0.2867166319144358,0.9554153895116605,0.0025,0.0,0.0,0.0,0.0025,0.0,0.0,0.0,0.0025,0.02,0.01,-0.02,0.02,0.0,0.0,0.0,0.02,0.0,0.0,0.0,0.02,-1.388544921875,-0.09576171874999999,9.686489374999999,0.04,0.0,0.0,0.0,0.04,0.0,0.0,0.0,0.04
1614727021.832527,14004,1614727021,832076072,base_imu_link,-0.02584769049473754,0.06589872950622858,0.2857064511491416,0.95569926133555,0.0025,0.0,0.0,0.0,0.0025,0.0,0.0,0.0,0.0025,0.01,0.0,-0.0,0.02,0.0,0.0,0.0,0.02,0.0,0.0,0.0,0.02,-1.403100703125,-0.13406640625,9.74854296875,0.04,0.0,0.0,0.0,0.04,0.0,0.0,0.0,0.04
1614727021.8525758,14005,1614727021,852129220,base_imu_link,-0.02591073179362443,0.06615351469850433,0.285535842139629,0.9557309398175652,0.0025,0.0,0.0,0.0,0.0025,0.0,0.0,0.0,0.0025,0.01,-0.0,0.01,0.02,0.0,0.0,0.0,0.02,0.0,0.0,0.0,0.02,-1.388544921875,-0.181947265625,9.777271484375,0.04,0.0,0.0,0.0,0.04,0.0,0.0,0.0,0.04
1614727021.872762,14006,1614727021,872346878,base_imu_link,-0.02625284131560791,0.06632215999998212,0.2857995870055396,0.9556310770811386,0.0025,0.0,0.0,0.0,0.0025,0.0,0.0,0.0,0.0025,0.02,0.01,0.02,0.02,0.0,0.0,0.0,0.02,0.0,0.0,0.0,0.02,-1.3743721875,-0.22523156249999998,9.76309875,0.04,0.0,0.0,0.0,0.04,0.0,0.0,0.0,0.04
1614727021.8928082,14007,1614727021,892340421,base_imu_link,-0.026707956802257394,0.06636894565604068,0.2856592625881474,0.9556571737781022,0.0025,0.0,0.0,0.0,0.0025,0.0,0.0,0.0,0.0025,0.02,0.02,0.02,0.02,0.0,0.0,0.0,0.02,0.0,0.0,0.0,0.02,-1.39812109375,-0.16739148437499998,9.796423828124999,0.04,0.0,0.0,0.0,0.04,0.0,0.0,0.0,0.04
1614727021.9128785,14008,1614727021,912373542,base_imu_link,-0.026817382319626694,0.06660517215853302,0.2861559119545535,0.9554890753434666,0.0025,0.0,0.0,0.0,0.0025,0.0,0.0,0.0,0.0025,0.02,0.01,0.03,0.02,0.0,0.0,0.0,0.02,0.0,0.0,0.0,0.02,-1.412676875,-0.0383046875,9.848901249999999,0.04,0.0,0.0,0.0,0.04,0.0,0.0,0.0,0.04
1614727021.932432,14009,1614727021,932015895,base_imu_link,-0.026384396007088032,0.06691489816404833,0.2863685755954486,0.9554157728248315,0.0025,0.0,0.0,0.0,0.0025,0.0,0.0,0.0,0.0025,0.01,-0.0,0.05,0.02,0.0,0.0,0.0,0.02,0.0,0.0,0.0,0.02,-1.407697265625,0.023748906249999997,9.873033203124999,0.04,0.0,0.0,0.0,0.04,0.0,0.0,0.0,0.04
1614727021.9524043,14010,1614727021,951983928,base_imu_link,-0.025710009945341523,0.06702467925320933,0.286573255046526,0.9553650910786167,0.0025,0.0,0.0,0.0,0.0025,0.0,0.0,0.0,0.0025,0.0,-0.01,0.06,0.02,0.0,0.0,0.0,0.02,0.0,0.0,0.0,0.02,-1.412676875,0.05286046874999999,10.01667578125,0.04,0.0,0.0,0.0,0.04,0.0,0.0,0.0,0.04
1614727021.9726906,14011,1614727021,972278594,base_imu_link,-0.02478654378806228,0.06684481297945609,0.28702191533420485,0.9552674067205834,0.0025,0.0,0.0,0.0,0.0025,0.0,0.0,0.0,0.0025,0.01,-0.04,0.07,0.02,0.0,0.0,0.0,0.02,0.0,0.0,0.0,0.02,-1.388544921875,0.023748906249999997,10.09328515625,0.04,0.0,0.0,0.0,0.04,0.0,0.0,0.0,0.04
1614727021.992948,14012,1614727021,992463588,base_imu_link,-0.023880716920321524,0.06629482586975599,0.287982758137506,0.9550396004552821,0.0025,0.0,0.0,0.0,0.0025,0.0,0.0,0.0,0.0025,0.02,-0.07,0.06,0.02,0.0,0.0,0.0,0.02,0.0,0.0,0.0,0.02,-1.3598164062499998,-0.004979609375,10.0404246875,0.04,0.0,0.0,0.0,0.04,0.0,0.0,0.0,0.04
1614727022.0128999,14013,1614727022,12481451,base_imu_link,-0.023150394788584626,0.0655125177642389,0.2886311244583557,0.9549158304433059,0.0025,0.0,0.0,0.0,0.0025,0.0,0.0,0.0,0.0025,0.02,-0.09,0.06,0.02,0.0,0.0,0.0,0.02,0.0,0.0,0.0,0.02,-1.3215117187499998,-0.067033203125,9.825152343749998,0.04,0.0,0.0,0.0,0.04,0.0,0.0,0.0,0.04
1614727022.032995,14014,1614727022,32604455,base_imu_link,-0.022855066276573365,0.06469029813274639,0.2892234978436698,0.954799758885633,0.0025,0.0,0.0,0.0,0.0025,0.0,0.0,0.0,0.0025,0.01,-0.07,0.05,0.02,0.0,0.0,0.0,0.02,0.0,0.0,0.0,0.02,-1.326491328125,-0.15321875,9.5807684375,0.04,0.0,0.0,0.0,0.04,0.0,0.0,0.0,0.04
1614727022.0532641,14015,1614727022,52823305,base_imu_link,-0.02326539730312195,0.06420145410516408,0.2894296629983876,0.9547603703316084,0.0025,0.0,0.0,0.0,0.0025,0.0,0.0,0.0,0.0025,-0.0,-0.06,0.04,0.02,0.0,0.0,0.0,0.02,0.0,0.0,0.0,0.02,-1.35521984375,-0.162794921875,9.4995625,0.04,0.0,0.0,0.0,0.04,0.0,0.0,0.0,0.04
1614727022.0732439,14016,1614727022,72802066,base_imu_link,-0.023865383641063873,0.06401839386866172,0.2897187694215654,0.9546701646930187,0.0025,0.0,0.0,0.0,0.0025,0.0,0.0,0.0,0.0025,-0.01,-0.04,0.03,0.02,0.0,0.0,0.0,0.02,0.0,0.0,0.0,0.02,-1.3789687499999999,-0.11031749999999999,9.55242296875,0.04,0.0,0.0,0.0,0.04,0.0,0.0,0.0,0.04
1614727022.0933208,14017,1614727022,92899322,base_imu_link,-0.02430716620078785,0.06397529991673713,0.28974534029212723,0.9546538432598751,0.0025,0.0,0.0,0.0,0.0025,0.0,0.0,0.0,0.0025,-0.02,-0.04,0.03,0.02,0.0,0.0,0.0,0.02,0.0,0.0,0.0,0.02,-1.388544921875,-0.090782109375,9.652781249999999,0.04,0.0,0.0,0.0,0.04,0.0,0.0,0.0,0.04
1614727022.113483,14018,1614727022,113072872,base_imu_link,-0.024535430256460905,0.06408709817672063,0.2899204657899461,0.9545873349387988,0.0025,0.0,0.0,0.0,0.0025,0.0,0.0,0.0,0.0025,-0.01,-0.04,0.04,0.02,0.0,0.0,0.0,0.02,0.0,0.0,0.0,0.02,-1.4172734374999998,-0.11031749999999999,9.729390624999999,0.04,0.0,0.0,0.0,0.04,0.0,0.0,0.0,0.04
1614727022.1334858,14019,1614727022,133068323,base_imu_link,-0.02473847079488152,0.06411550022688677,0.2900969340178045,0.9545265735257749,0.0025,0.0,0.0,0.0,0.0025,0.0,0.0,0.0,0.0025,-0.01,-0.04,0.05,0.02,0.0,0.0,0.0,0.02,0.0,0.0,0.0,0.02,-1.412676875,-0.14364257812499998,9.75313953125,0.04,0.0,0.0,0.0,0.04,0.0,0.0,0.0,0.04
1614727022.1534383,14020,1614727022,153123378,base_imu_link,-0.025094005565986482,0.0640054778290543,0.2904524687889095,0.9544165511279425,0.0025,0.0,0.0,0.0,0.0025,0.0,0.0,0.0,0.0025,-0.0,-0.05,0.05,0.02,0.0,0.0,0.0,0.02,0.0,0.0,0.0,0.02,-1.364796015625,-0.15321875,9.743946406249998,0.04,0.0,0.0,0.0,0.04,0.0,0.0,0.0,0.04
1614727022.1732879,14021,1614727022,172929286,base_imu_link,-0.025203855594449903,0.06360396893762092,0.29113496439200615,0.9542325362861095,0.0025,0.0,0.0,0.0,0.0025,0.0,0.0,0.0,0.0025,0.01,-0.06,0.06,0.02,0.0,0.0,0.0,0.02,0.0,0.0,0.0,0.02,-1.288186640625,-0.17696765625,9.71023828125,0.04,0.0,0.0,0.0,0.04,0.0,0.0,0.0,0.04
1614727022.193377,14022,1614727022,192954778,base_imu_link,-0.025381515836960494,0.06291042583167336,0.2914988583473872,0.9541627075911453,0.0025,0.0,0.0,0.0,0.0025,0.0,0.0,0.0,0.0025,0.01,-0.06,0.06,0.02,0.0,0.0,0.0,0.02,0.0,0.0,0.0,0.02,-1.230729609375,-0.23940429687499998,9.67193359375,0.04,0.0,0.0,0.0,0.04,0.0,0.0,0.0,0.04
1614727022.213359,14023,1614727022,212980985,base_imu_link,-0.02577932548216529,0.06196475800467109,0.29221381077038205,0.9539952221778465,0.0025,0.0,0.0,0.0,0.0025,0.0,0.0,0.0,0.0025,0.0,-0.05,0.05,0.02,0.0,0.0,0.0,0.02,0.0,0.0,0.0,0.02,-1.2065976562499998,-0.296861328125,9.67193359375,0.04,0.0,0.0,0.0,0.04,0.0,0.0,0.0,0.04
1614727022.2336166,14024,1614727022,233220338,base_imu_link,-0.026481050775129234,0.06102263071828076,0.2921152136203618,0.9540669234710927,0.0025,0.0,0.0,0.0,0.0025,0.0,0.0,0.0,0.0025,0.0,-0.04,0.03,0.02,0.0,0.0,0.0,0.02,0.0,0.0,0.0,0.02,-1.235326171875,-0.24438390624999998,9.729390624999999,0.04,0.0,0.0,0.0,0.04,0.0,0.0,0.0,0.04
1614727022.2536795,14025,1614727022,253231763,base_imu_link,-0.02677030306538431,0.060478740788439345,0.2921469074762222,0.9540837789410905,0.0025,0.0,0.0,0.0,0.0025,0.0,0.0,0.0,0.0025,0.01,-0.03,0.02,0.02,0.0,0.0,0.0,0.02,0.0,0.0,0.0,0.02,-1.235326171875,-0.21565539062499997,9.815576171875,0.04,0.0,0.0,0.0,0.04,0.0,0.0,0.0,0.04
1614727022.273672,14026,1614727022,273253440,base_imu_link,-0.026800066612046723,0.05992101040526938,0.2924131887473372,0.9540365590417464,0.0025,0.0,0.0,0.0,0.0025,0.0,0.0,0.0,0.0025,0.02,-0.03,0.02,0.02,0.0,0.0,0.0,0.02,0.0,0.0,0.0,0.02,-1.2544785156249998,-0.19650304687499998,9.78684765625,0.04,0.0,0.0,0.0,0.04,0.0,0.0,0.0,0.04
1614727022.293783,14027,1614727022,293324470,base_imu_link,-0.026842887475897824,0.059724242394663986,0.29258687990127263,0.9539944402206849,0.0025,0.0,0.0,0.0,0.0025,0.0,0.0,0.0,0.0025,0.02,-0.03,0.01,0.02,0.0,0.0,0.0,0.02,0.0,0.0,0.0,0.02,-1.2640546874999998,-0.24898046875,9.67653015625,0.04,0.0,0.0,0.0,0.04,0.0,0.0,0.0,0.04
1614727022.3137875,14028,1614727022,313344717,base_imu_link,-0.027238338719878297,0.059606083208414054,0.2922798910843847,0.9540847200411675,0.0025,0.0,0.0,0.0,0.0025,0.0,0.0,0.0,0.0025,0.01,-0.01,0.0,0.02,0.0,0.0,0.0,0.02,0.0,0.0,0.0,0.02,-1.27861046875,-0.24438390624999998,9.67193359375,0.04,0.0,0.0,0.0,0.04,0.0,0.0,0.0,0.04
1614727022.3335764,14029,1614727022,333148956,base_imu_link,-0.027648853792298096,0.05957631986368834,0.2918053800566893,0.9542200077369173,0.0025,0.0,0.0,0.0,0.0025,0.0,0.0,0.0,0.0025,0.01,-0.01,-0.0,0.02,0.0,0.0,0.0,0.02,0.0,0.0,0.0,0.02,-1.269034296875,-0.162794921875,9.743946406249998,0.04,0.0,0.0,0.0,0.04,0.0,0.0,0.0,0.04
1614727022.3538215,14030,1614727022,353385925,base_imu_link,-0.027616315378247443,0.059768386355120474,0.2917983589304815,0.9542110861035477,0.0025,0.0,0.0,0.0,0.0025,0.0,0.0,0.0,0.0025,0.01,-0.0,0.0,0.02,0.0,0.0,0.0,0.02,0.0,0.0,0.0,0.02,-1.2640546874999998,-0.06243664062499999,9.79144421875,0.04,0.0,0.0,0.0,0.04,0.0,0.0,0.0,0.04
1614727022.3739882,14031,1614727022,373558044,base_imu_link,-0.02700695511000757,0.06004125248714528,0.2922551803819611,0.9540715811276259,0.0025,0.0,0.0,0.0,0.0025,0.0,0.0,0.0,0.0025,0.01,0.0,0.02,0.02,0.0,0.0,0.0,0.02,0.0,0.0,0.0,0.02,-1.27861046875,0.004979609375,9.863457031249999,0.04,0.0,0.0,0.0,0.04,0.0,0.0,0.0,0.04
1614727022.394228,14032,1614727022,393839597,base_imu_link,-0.026142873048564483,0.06039365326158266,0.2926126262399633,0.9539638398804421,0.0025,0.0,0.0,0.0,0.0025,0.0,0.0,0.0,0.0025,0.02,0.0,0.02,0.02,0.0,0.0,0.0,0.02,0.0,0.0,0.0,0.02,-1.307338984375,-0.009576171875,9.848901249999999,0.04,0.0,0.0,0.0,0.04,0.0,0.0,0.0,0.04
1614727022.4140563,14033,1614727022,413637638,base_imu_link,-0.025371906593746964,0.060811099872969385,0.29272403582495393,0.9539239567902617,0.0025,0.0,0.0,0.0,0.0025,0.0,0.0,0.0,0.0025,0.03,-0.01,0.01,0.02,0.0,0.0,0.0,0.02,0.0,0.0,0.0,0.02,-1.3119355468749998,-0.08120593749999999,9.777271484375,0.04,0.0,0.0,0.0,0.04,0.0,0.0,0.0,0.04
1614727022.4339628,14034,1614727022,433571100,base_imu_link,-0.02481999012310719,0.061071004011813985,0.2927688883370455,0.9539081080382787,0.0025,0.0,0.0,0.0,0.0025,0.0,0.0,0.0,0.0025,0.04,-0.01,-0.0,0.02,0.0,0.0,0.0,0.02,0.0,0.0,0.0,0.02,-1.307338984375,-0.1578153125,9.66733703125,0.04,0.0,0.0,0.0,0.04,0.0,0.0,0.0,0.04
1614727022.4539528,14035,1614727022,453519582,base_imu_link,-0.024797139698625327,0.06135283571986098,0.2925102100314168,0.9539699725039961,0.0025,0.0,0.0,0.0,0.0025,0.0,0.0,0.0,0.0025,0.05,-0.01,-0.02,0.02,0.0,0.0,0.0,0.02,0.0,0.0,0.0,0.02,-1.27861046875,-0.19650304687499998,9.5807684375,0.04,0.0,0.0,0.0,0.04,0.0,0.0,0.0,0.04
1614727022.4740207,14036,1614727022,473556756,base_imu_link,-0.024967671426670026,0.06139377018835669,0.29218670955128173,0.9540620247799322,0.0025,0.0,0.0,0.0,0.0025,0.0,0.0,0.0,0.0025,0.04,-0.01,-0.03,0.02,0.0,0.0,0.0,0.02,0.0,0.0,0.0,0.02,-1.2544785156249998,-0.15321875,9.67193359375,0.04,0.0,0.0,0.0,0.04,0.0,0.0,0.0,0.04
1614727022.4939935,14037,1614727022,493558168,base_imu_link,-0.024926186706872067,0.06131702010350566,0.29193811468245473,0.954144142914232,0.0025,0.0,0.0,0.0,0.0025,0.0,0.0,0.0,0.0025,0.03,-0.01,-0.04,0.02,0.0,0.0,0.0,0.02,0.0,0.0,0.0,0.02,-1.22575,-0.181947265625,9.705641718749998,0.04,0.0,0.0,0.0,0.04,0.0,0.0,0.0,0.04
1614727022.513966,14038,1614727022,513560771,base_imu_link,-0.02513049018281208,0.06107182494825357,0.2920397472355811,0.9541234074768521,0.0025,0.0,0.0,0.0,0.0025,0.0,0.0,0.0,0.0025,0.02,-0.01,-0.03,0.02,0.0,0.0,0.0,0.02,0.0,0.0,0.0,0.02,-1.230729609375,-0.11989367187499998,9.78684765625,0.04,0.0,0.0,0.0,0.04,0.0,0.0,0.0,0.04
1614727022.5341096,14039,1614727022,533650875,base_imu_link,-0.02509618884702523,0.06071977254280793,0.2917998690317897,0.9542201669220445,0.0025,0.0,0.0,0.0,0.0025,0.0,0.0,0.0,0.0025,0.01,-0.01,-0.02,0.02,0.0,0.0,0.0,0.02,0.0,0.0,0.0,0.02,-1.235326171875,-0.06243664062499999,9.848901249999999,0.04,0.0,0.0,0.0,0.04,0.0,0.0,0.0,0.04
1614727022.5543025,14040,1614727022,553854465,base_imu_link,-0.024692193471744284,0.060569593680158615,0.29186543628464373,0.9542201983847067,0.0025,0.0,0.0,0.0,0.0025,0.0,0.0,0.0,0.0025,0.01,-0.01,-0.01,0.02,0.0,0.0,0.0,0.02,0.0,0.0,0.0,0.02,-1.2020010937499999,-0.12946984374999998,9.777271484375,0.04,0.0,0.0,0.0,0.04,0.0,0.0,0.0,0.04
1614727022.574325,14041,1614727022,573903799,base_imu_link,-0.024663333912546305,0.060215260259405316,0.2917087887555575,0.9542912684054989,0.0025,0.0,0.0,0.0,0.0025,0.0,0.0,0.0,0.0025,0.01,-0.01,-0.0,0.02,0.0,0.0,0.0,0.02,0.0,0.0,0.0,0.02,-1.2161738281249999,-0.14862218749999997,9.67653015625,0.04,0.0,0.0,0.0,0.04,0.0,0.0,0.0,0.04
1614727022.594386,14042,1614727022,593935251,base_imu_link,-0.024809741357516714,0.060078883793065724,0.29180370408657186,0.9542670500113208,0.0025,0.0,0.0,0.0,0.0025,0.0,0.0,0.0,0.0025,0.01,-0.0,-0.0,0.02,0.0,0.0,0.0,0.02,0.0,0.0,0.0,0.02,-1.249881953125,-0.067033203125,9.700662109375,0.04,0.0,0.0,0.0,0.04,0.0,0.0,0.0,0.04
1614727022.6144266,14043,1614727022,613963842,base_imu_link,-0.02448099980490094,0.06027258330642114,0.29144843078065125,0.9543718921602935,0.0025,0.0,0.0,0.0,0.0025,0.0,0.0,0.0,0.0025,0.01,-0.0,0.0,0.02,0.0,0.0,0.0,0.02,0.0,0.0,0.0,0.02,-1.27861046875,0.0,9.78684765625,0.04,0.0,0.0,0.0,0.04,0.0,0.0,0.0,0.04
1614727022.634424,14044,1614727022,634001731,base_imu_link,-0.02388316446835147,0.06036313683491372,0.29157933852103907,0.9543413307166678,0.0025,0.0,0.0,0.0,0.0025,0.0,0.0,0.0,0.0025,0.01,-0.02,0.01,0.02,0.0,0.0,0.0,0.02,0.0,0.0,0.0,0.02,-1.307338984375,0.0383046875,9.882609375,0.04,0.0,0.0,0.0,0.04,0.0,0.0,0.0,0.04
1614727022.6544905,14045,1614727022,654036045,base_imu_link,-0.02327479409954832,0.06045794251802379,0.2915436721272678,0.9543612567516869,0.0025,0.0,0.0,0.0,0.0025,0.0,0.0,0.0,0.0025,0.0,-0.04,0.01,0.02,0.0,0.0,0.0,0.02,0.0,0.0,0.0,0.02,-1.288186640625,0.004979609375,9.944662968749999,0.04,0.0,0.0,0.0,0.04,0.0,0.0,0.0,0.04
1614727022.6746967,14046,1614727022,674281835,base_imu_link,-0.022706003142750827,0.06008534801492684,0.2915250065645427,0.9544041905412767,0.0025,0.0,0.0,0.0,0.0025,0.0,0.0,0.0,0.0025,0.0,-0.06,0.02,0.02,0.0,0.0,0.0,0.02,0.0,0.0,0.0,0.02,-1.28320703125,-0.090782109375,9.925510625,0.04,0.0,0.0,0.0,0.04,0.0,0.0,0.0,0.04
1614727022.6949968,14047,1614727022,694476366,base_imu_link,-0.02256402611173906,0.05958159561551555,0.2916992447896719,0.9543859013934943,0.0025,0.0,0.0,0.0,0.0025,0.0,0.0,0.0,0.0025,0.01,-0.07,0.01,0.02,0.0,0.0,0.0,0.02,0.0,0.0,0.0,0.02,-1.2736308593749999,-0.23940429687499998,9.71023828125,0.04,0.0,0.0,0.0,0.04,0.0,0.0,0.0,0.04
1614727022.714713,14048,1614727022,714327812,base_imu_link,-0.02333010415574311,0.059260018515390735,0.29108597805903363,0.954574727207385,0.0025,0.0,0.0,0.0,0.0025,0.0,0.0,0.0,0.0025,0.01,-0.05,-0.02,0.02,0.0,0.0,0.0,0.02,0.0,0.0,0.0,0.02,-1.2736308593749999,-0.330569453125,9.566595703125,0.04,0.0,0.0,0.0,0.04,0.0,0.0,0.0,0.04
1614727022.7347133,14049,1614727022,734343528,base_imu_link,-0.024485130162843902,0.05909665822714767,0.29015622882198217,0.9548389530507737,0.0025,0.0,0.0,0.0,0.0025,0.0,0.0,0.0,0.0025,0.01,-0.02,-0.04,0.02,0.0,0.0,0.0,0.02,0.0,0.0,0.0,0.02,-1.269034296875,-0.229828125,9.599920781249999,0.04,0.0,0.0,0.0,0.04,0.0,0.0,0.0,0.04
1614727022.7548282,14050,1614727022,754384040,base_imu_link,-0.025118334955129117,0.05918040342755408,0.28977250820306605,0.9549338419958411,0.0025,0.0,0.0,0.0,0.0025,0.0,0.0,0.0,0.0025,0.01,-0.01,-0.03,0.02,0.0,0.0,0.0,0.02,0.0,0.0,0.0,0.02,-1.2544785156249998,-0.124490234375,9.67193359375,0.04,0.0,0.0,0.0,0.04,0.0,0.0,0.0,0.04
1614727022.7752552,14051,1614727022,774816036,base_imu_link,-0.02524101441168688,0.05942061196511009,0.28919117659722926,0.9550919041869588,0.0025,0.0,0.0,0.0,0.0025,0.0,0.0,0.0,0.0025,-0.0,0.0,-0.01,0.02,0.0,0.0,0.0,0.02,0.0,0.0,0.0,0.02,-1.249881953125,-0.06243664062499999,9.78684765625,0.04,0.0,0.0,0.0,0.04,0.0,0.0,0.0,0.04
1614727022.7953098,14052,1614727022,794833660,base_imu_link,-0.02510026581232794,0.059460138045313776,0.28959751317377613,0.9549700251857894,0.0025,0.0,0.0,0.0,0.0025,0.0,0.0,0.0,0.0025,-0.01,-0.01,0.01,0.02,0.0,0.0,0.0,0.02,0.0,0.0,0.0,0.02,-1.259458125,-0.028728515625,9.777271484375,0.04,0.0,0.0,0.0,0.04,0.0,0.0,0.0,0.04
1614727022.8152723,14053,1614727022,814837217,base_imu_link,-0.024766916865954974,0.05956122302295156,0.2895767400272567,0.9549787286511421,0.0025,0.0,0.0,0.0,0.0025,0.0,0.0,0.0,0.0025,-0.01,-0.01,0.01,0.02,0.0,0.0,0.0,0.02,0.0,0.0,0.0,0.02,-1.259458125,-0.028728515625,9.6956825,0.04,0.0,0.0,0.0,0.04,0.0,0.0,0.0,0.04
1614727022.8349776,14054,1614727022,834506988,base_imu_link,-0.0243277459941973,0.05987530688516139,0.289709923924258,0.9549299808782057,0.0025,0.0,0.0,0.0,0.0025,0.0,0.0,0.0,0.0025,0.01,-0.01,0.02,0.02,0.0,0.0,0.0,0.02,0.0,0.0,0.0,0.02,-1.24030578125,0.0,9.652781249999999,0.04,0.0,0.0,0.0,0.04,0.0,0.0,0.0,0.04
1614727022.8553278,14055,1614727022,854885339,base_imu_link,-0.023587203211664742,0.06019235475794815,0.2894115947107641,0.9550190852126031,0.0025,0.0,0.0,0.0,0.0025,0.0,0.0,0.0,0.0025,0.02,0.0,0.02,0.02,0.0,0.0,0.0,0.02,0.0,0.0,0.0,0.02,-1.197021484375,0.0,9.719814453124998,0.04,0.0,0.0,0.0,0.04,0.0,0.0,0.0,0.04
1614727022.8753614,14056,1614727022,874916553,base_imu_link,-0.022994388929951738,0.060279759752592595,0.2896260398495987,0.9549630179661129,0.0025,0.0,0.0,0.0,0.0025,0.0,0.0,0.0,0.0025,0.02,-0.0,0.02,0.02,0.0,0.0,0.0,0.02,0.0,0.0,0.0,0.02,-1.1828487499999998,-0.0383046875,9.772291874999999,0.04,0.0,0.0,0.0,0.04,0.0,0.0,0.0,0.04
1614727022.8953867,14057,1614727022,894944906,base_imu_link,-0.02254964948884205,0.06005138520780973,0.2894433981530338,0.9550433831550156,0.0025,0.0,0.0,0.0,0.0025,0.0,0.0,0.0,0.0025,0.02,-0.0,0.01,0.02,0.0,0.0,0.0,0.02,0.0,0.0,0.0,0.02,-1.235326171875,-0.01915234375,9.916317499999998,0.04,0.0,0.0,0.0,0.04,0.0,0.0,0.0,0.04
1614727022.9152286,14058,1614727022,914799213,base_imu_link,-0.02214062688658472,0.05990234518391664,0.28942630466138336,0.955067492825817,0.0025,0.0,0.0,0.0,0.0025,0.0,0.0,0.0,0.0025,0.01,-0.02,-0.0,0.02,0.0,0.0,0.0,0.02,0.0,0.0,0.0,0.02,-1.230729609375,-0.09576171874999999,9.911337890625,0.04,0.0,0.0,0.0,0.04,0.0,0.0,0.0,0.04
1614727022.9353194,14059,1614727022,934836626,base_imu_link,-0.021981630302591114,0.0596775272290633,0.2894249641094436,0.9550856458052922,0.0025,0.0,0.0,0.0,0.0025,0.0,0.0,0.0,0.0025,0.02,-0.03,-0.01,0.02,0.0,0.0,0.0,0.02,0.0,0.0,0.0,0.02,-1.24490234375,-0.124490234375,9.8443046875,0.04,0.0,0.0,0.0,0.04,0.0,0.0,0.0,0.04
1614727022.9552834,14060,1614727022,954842567,base_imu_link,-0.0220249250279084,0.05948170761808328,0.28959942832443125,0.9550439781761436,0.0025,0.0,0.0,0.0,0.0025,0.0,0.0,0.0,0.0025,0.03,-0.02,-0.02,0.02,0.0,0.0,0.0,0.02,0.0,0.0,0.0,0.02,-1.24030578125,-0.11031749999999999,9.806,0.04,0.0,0.0,0.0,0.04,0.0,0.0,0.0,0.04
1614727022.9754353,14061,1614727022,974882602,base_imu_link,-0.02200487663363378,0.059396431718007986,0.2896840518543215,0.9550240831543304,0.0025,0.0,0.0,0.0,0.0025,0.0,0.0,0.0,0.0025,0.03,-0.02,-0.01,0.02,0.0,0.0,0.0,0.02,0.0,0.0,0.0,0.02,-1.2161738281249999,-0.1149140625,9.815576171875,0.04,0.0,0.0,0.0,0.04,0.0,0.0,0.0,0.04
1614727022.9957304,14062,1614727022,995193481,base_imu_link,-0.021954397993862725,0.059229723089069715,0.28968660788231365,0.9550348232002631,0.0025,0.0,0.0,0.0,0.0025,0.0,0.0,0.0,0.0025,0.02,-0.02,-0.01,0.02,0.0,0.0,0.0,0.02,0.0,0.0,0.0,0.02,-1.2065976562499998,-0.13406640625,9.796423828124999,0.04,0.0,0.0,0.0,0.04,0.0,0.0,0.0,0.04
1614727023.015654,14063,1614727023,15101671,base_imu_link,-0.022019651504020483,0.05893870884461626,0.289283969407657,0.9551733604907127,0.0025,0.0,0.0,0.0,0.0025,0.0,0.0,0.0,0.0025,0.02,-0.02,-0.0,0.02,0.0,0.0,0.0,0.02,0.0,0.0,0.0,0.02,-1.197021484375,-0.1149140625,9.78684765625,0.04,0.0,0.0,0.0,0.04,0.0,0.0,0.0,0.04
1614727023.0354443,14064,1614727023,35037040,base_imu_link,-0.021964116899243494,0.05877389021994832,0.28920311298554346,0.9552092790780043,0.0025,0.0,0.0,0.0,0.0025,0.0,0.0,0.0,0.0025,0.03,-0.02,0.0,0.02,0.0,0.0,0.0,0.02,0.0,0.0,0.0,0.02,-1.2020010937499999,-0.090782109375,9.743946406249998,0.04,0.0,0.0,0.0,0.04,0.0,0.0,0.0,0.04
1614727023.0558364,14065,1614727023,55377960,base_imu_link,-0.021714485265907735,0.058756761933588766,0.2896057502176506,0.9550940443210753,0.0025,0.0,0.0,0.0,0.0025,0.0,0.0,0.0,0.0025,0.04,-0.01,0.01,0.02,0.0,0.0,0.0,0.02,0.0,0.0,0.0,0.02,-1.2211534375,-0.06243664062499999,9.691085937499999,0.04,0.0,0.0,0.0,0.04,0.0,0.0,0.0,0.04
1614727023.0758886,14066,1614727023,75430393,base_imu_link,-0.021547789578627602,0.058807306777155545,0.2895954908172193,0.9550978196667744,0.0025,0.0,0.0,0.0,0.0025,0.0,0.0,0.0,0.0025,0.02,-0.02,0.01,0.02,0.0,0.0,0.0,0.02,0.0,0.0,0.0,0.02,-1.230729609375,-0.028728515625,9.62903234375,0.04,0.0,0.0,0.0,0.04,0.0,0.0,0.0,0.04
1614727023.095983,14067,1614727023,95491647,base_imu_link,-0.021328126446494892,0.05896461844421147,0.289662125251202,0.9550728443364767,0.0025,0.0,0.0,0.0,0.0025,0.0,0.0,0.0,0.0025,0.01,-0.01,0.02,0.02,0.0,0.0,0.0,0.02,0.0,0.0,0.0,0.02,-1.24490234375,-0.028728515625,9.599920781249999,0.04,0.0,0.0,0.0,0.04,0.0,0.0,0.0,0.04
1614727023.1160126,14068,1614727023,115509510,base_imu_link,-0.02132107726385042,0.0591473101154226,0.29007104043532894,0.9549375889926969,0.0025,0.0,0.0,0.0,0.0025,0.0,0.0,0.0,0.0025,0.0,-0.02,0.02,0.02,0.0,0.0,0.0,0.02,0.0,0.0,0.0,0.02,-1.2736308593749999,-0.028728515625,9.662357421874999,0.04,0.0,0.0,0.0,0.04,0.0,0.0,0.0,0.04
1614727023.1359594,14069,1614727023,135432481,base_imu_link,-0.02135963238668771,0.05949854420805174,0.290393852880111,0.9548167884735126,0.0025,0.0,0.0,0.0,0.0025,0.0,0.0,0.0,0.0025,0.0,-0.01,0.01,0.02,0.0,0.0,0.0,0.02,0.0,0.0,0.0,0.02,-1.292783203125,-0.05745703125,9.729390624999999,0.04,0.0,0.0,0.0,0.04,0.0,0.0,0.0,0.04
1614727023.1560197,14070,1614727023,155615568,base_imu_link,-0.021429534328841114,0.059843103458924934,0.28988850410507044,0.9549472410633889,0.0025,0.0,0.0,0.0,0.0025,0.0,0.0,0.0,0.0025,0.0,-0.01,0.0,0.02,0.0,0.0,0.0,0.02,0.0,0.0,0.0,0.02,-1.288186640625,-0.067033203125,9.772291874999999,0.04,0.0,0.0,0.0,0.04,0.0,0.0,0.0,0.04
1614727023.1762245,14071,1614727023,175782918,base_imu_link,-0.02152630144226253,0.06008562588749045,0.2902177710141875,0.9548298179756862,0.0025,0.0,0.0,0.0,0.0025,0.0,0.0,0.0,0.0025,0.01,-0.01,0.01,0.02,0.0,0.0,0.0,0.02,0.0,0.0,0.0,0.02,-1.2736308593749999,-0.01915234375,9.8872059375,0.04,0.0,0.0,0.0,0.04,0.0,0.0,0.0,0.04
1614727023.1962671,14072,1614727023,195828676,base_imu_link,-0.021359651874045343,0.06013627752859685,0.2902072796739228,0.9548335604811369,0.0025,0.0,0.0,0.0,0.0025,0.0,0.0,0.0,0.0025,0.01,-0.02,0.02,0.02,0.0,0.0,0.0,0.02,0.0,0.0,0.0,0.02,-1.24030578125,-0.014555781249999998,9.911337890625,0.04,0.0,0.0,0.0,0.04,0.0,0.0,0.0,0.04
1614727023.216283,14073,1614727023,215833187,base_imu_link,-0.02096003190921257,0.06007639566330186,0.289939073675806,0.9549276607693834,0.0025,0.0,0.0,0.0,0.0025,0.0,0.0,0.0,0.0025,0.01,-0.02,0.02,0.02,0.0,0.0,0.0,0.02,0.0,0.0,0.0,0.02,-1.2211534375,-0.04290125,9.882609375,0.04,0.0,0.0,0.0,0.04,0.0,0.0,0.0,0.04
1614727023.2362216,14074,1614727023,235785961,base_imu_link,-0.020800874068608137,0.05985167091914389,0.28993802006019376,0.9549455720876154,0.0025,0.0,0.0,0.0,0.0025,0.0,0.0,0.0,0.0025,0.01,-0.02,0.02,0.02,0.0,0.0,0.0,0.02,0.0,0.0,0.0,0.02,-1.22575,-0.06243664062499999,9.777271484375,0.04,0.0,0.0,0.0,0.04,0.0,0.0,0.0,0.04
1614727023.2562902,14075,1614727023,255851984,base_imu_link,-0.020765948322720478,0.05967954985665942,0.290190799473979,0.9548803205741636,0.0025,0.0,0.0,0.0,0.0025,0.0,0.0,0.0,0.0025,0.01,-0.03,0.02,0.02,0.0,0.0,0.0,0.02,0.0,0.0,0.0,0.02,-1.235326171875,-0.076609375,9.619073125,0.04,0.0,0.0,0.0,0.04,0.0,0.0,0.0,0.04
1614727023.2763405,14076,1614727023,275928974,base_imu_link,-0.02090063740723457,0.059728448793808564,0.29061123655448273,0.954746450608187,0.0025,0.0,0.0,0.0,0.0025,0.0,0.0,0.0,0.0025,0.01,-0.02,0.02,0.02,0.0,0.0,0.0,0.02,0.0,0.0,0.0,0.02,-1.24030578125,-0.08120593749999999,9.54246375,0.04,0.0,0.0,0.0,0.04,0.0,0.0,0.0,0.04
1614727023.2964087,14077,1614727023,295982360,base_imu_link,-0.021138037423969705,0.05992954745987308,0.2905342106907562,0.9547520647442544,0.0025,0.0,0.0,0.0,0.0025,0.0,0.0,0.0,0.0025,0.01,-0.0,0.02,0.02,0.0,0.0,0.0,0.02,0.0,0.0,0.0,0.02,-1.24030578125,-0.09576171874999999,9.59072765625,0.04,0.0,0.0,0.0,0.04,0.0,0.0,0.0,0.04
1614727023.316798,14078,1614727023,316387414,base_imu_link,-0.02150503655169127,0.06018116091829174,0.2907943791303149,0.9546488309004794,0.0025,0.0,0.0,0.0,0.0025,0.0,0.0,0.0,0.0025,0.01,0.01,0.02,0.02,0.0,0.0,0.0,0.02,0.0,0.0,0.0,0.02,-1.259458125,-0.047880859374999994,9.729390624999999,0.04,0.0,0.0,0.0,0.04,0.0,0.0,0.0,0.04
